subj_id,trial_num,category,drawing_key_id_1,drawing_key_id_2,haus_bin,haus_sim,rating,rt,pair_id_old,trial_type,run,pair_id
1153396498,1,tree,6610673314299904,5623310995947520,8,95.524865872714,4,9082,158,critical_trial,run0,NA
1153396498,10,tree,6307926773858304,5789507221716992,10,143.7810835958611,3,2118,191,critical_trial,run0,NA
1153396498,11,tree,5161603961978880,6691046576619520,2,54.405882034941776,3,2614,28,critical_trial,run0,NA
1153396498,12,tree,6603145708830720,4681674581344256,8,93.92017887546851,4,2931,152,critical_trial,run0,NA
1153396498,13,tree,5112301692649472,6337442959327232,5,74.96665925596525,4,1696,100,critical_trial,run0,NA
1153396498,14,tree,6232507345272832,5200899423076352,6,81.39410298049853,4,2545,107,critical_trial,run0,NA
1153396498,15,tree,5914386784845824,4840306753142784,9,114.0701538527936,3,3224,175,critical_trial,run0,NA
1153396498,16,tree,4592989026385920,5001874006605824,8,93.40770846134703,3,2139,155,critical_trial,run0,NA
1153396498,17,tree,6323944921497600,6422416773349376,1,42.95346318982906,5,2299,3,critical_trial,run0,NA
1153396498,18,tree,5465383655964672,5708691795869696,2,55.97320787662612,4,1948,36,critical_trial,run0,NA
1153396498,19,tree,4580306881347584,5174745467191296,1,46.17358552246078,5,1465,16,critical_trial,run0,NA
1153396498,2,tree,6329527238131712,6697642375512064,9,112.96902230257638,2,4198,179,critical_trial,run0,NA
1153396498,20,tree,6433464687525888,5079657730801664,10,121.1486689980538,4,2210,184,critical_trial,run0,NA
1153396498,21,tree,5644084460912640,6532474475642880,9,108.90821823902914,2,2314,180,critical_trial,run0,NA
1153396498,22,tree,5841177574113280,5827807223480320,1,36.013886210738214,4,2018,5,critical_trial,run0,NA
1153396498,23,tree,6167007219154944,5766791022247936,10,142.0774436706967,4,1388,200,critical_trial,run0,NA
1153396498,24,tree,4559700781694976,6691873160691712,1,40.792156108742276,5,1801,4,critical_trial,run0,NA
1153396498,25,tree,4659614236803072,6393343753846784,1,48.54894437575342,4,2338,2,critical_trial,run0,NA
1153396498,26,tree,5579564220678144,5499033231556608,7,90.62008607367353,7,2763,137,attention_check,run0,NA
1153396498,27,tree,6341537778630656,6585894687473664,9,112.50777750893491,6,1475,161,critical_trial,run0,NA
1153396498,28,tree,5977442474786816,5726178365145088,10,137.00364958642524,3,2291,195,critical_trial,run0,NA
1153396498,29,tree,5512375149002752,6085611746230272,3,59.21148537234985,6,6338,59,critical_trial,run0,NA
1153396498,3,tree,5104298172088320,6005399176085504,7,86.95401083331349,2,2770,122,critical_trial,run0,NA
1153396498,30,tree,5661171501760512,5966033485561856,2,50.695167422546305,3,2211,26,critical_trial,run0,NA
1153396498,31,tree,6573084209315840,6410852137697280,3,58.83026432033091,3,1688,48,critical_trial,run0,NA
1153396498,32,tree,4808756976156672,5394944229376000,9,112.0714058089752,3,1843,169,critical_trial,run0,NA
1153396498,33,tree,5195205030445056,6725736373157888,10,119.28118040998756,2,2050,193,critical_trial,run0,NA
1153396498,34,tree,4793407400574976,5021520449503232,4,66.64833081180653,5,1850,64,critical_trial,run0,NA
1153396498,35,tree,5183192241799168,4753236034584576,7,92.13576938409967,4,1617,140,critical_trial,run0,NA
1153396498,36,tree,5484525100466176,6048833744142336,6,80.2122185206219,5,3107,106,critical_trial,run0,NA
1153396498,37,tree,4746912655736832,6346891920932864,10,141.088624630053,1,1802,183,critical_trial,run0,NA
1153396498,38,tree,4646404377018368,6681960573304832,5,72.03471385380801,4,2913,96,critical_trial,run0,NA
1153396498,39,tree,4962187703484416,5432947106643968,5,69.85699678629192,3,1926,86,critical_trial,run0,NA
1153396498,4,tree,5606326832988160,6425465445154816,8,94.13288479590966,5,4769,145,critical_trial,run0,NA
1153396498,40,tree,6487434462232576,6140366757560320,6,83.73768566183328,5,2053,120,critical_trial,run0,NA
1153396498,41,tree,6684022107275264,5337229599703040,6,82.68010643437755,2,2122,118,critical_trial,run0,NA
1153396498,42,tree,5909216902512640,6176961757970432,6,81.32035415564789,1,3169,104,critical_trial,run0,NA
1153396498,43,tree,5164092761309184,5899403510415360,2,55.02726596879042,3,2054,32,critical_trial,run0,NA
1153396498,44,tree,5410446918025216,6311665287036928,1,44.384682042344295,2,1585,18,critical_trial,run0,NA
1153396498,45,tree,5183785098280960,6704008519483392,1,42.44997055358225,2,2029,12,critical_trial,run0,NA
1153396498,46,tree,4730719286853632,5325080026415104,1,47.01063709417264,5,2707,7,critical_trial,run0,NA
1153396498,47,tree,5113119821004800,4958919220789248,6,82.29216244576394,5,1490,108,critical_trial,run0,NA
1153396498,48,tree,6372027596275712,6067248483532800,4,63.56099432828282,1,1642,66,critical_trial,run0,NA
1153396498,49,tree,4708881638883328,5367125659090944,10,117.51595636338071,2,2483,187,critical_trial,run0,NA
1153396498,5,tree,5286518522380288,5859979330322432,9,104.04806581575652,5,2533,166,critical_trial,run0,NA
1153396498,50,tree,5037475460284416,6605035263754240,3,61.61980201201558,2,1705,57,critical_trial,run0,NA
1153396498,51,tree,4948287830360064,4573178275823616,10,139.90353819685905,7,3794,196,attention_check,run0,NA
1153396498,52,tree,5777096410398720,6123923475267584,7,87.28115489611719,4,2803,125,critical_trial,run0,NA
1153396498,6,tree,5702695061028864,4875461744132096,2,52.20153254455275,4,2138,29,critical_trial,run0,NA
1153396498,7,tree,5378216153841664,4825033144795136,2,55.60575509783138,4,3028,39,critical_trial,run0,NA
1153396498,8,tree,4514498452914176,5045351679524864,3,57.28001396647874,5,1537,53,critical_trial,run0,NA
1153396498,9,tree,6666113066729472,4917750214426624,9,111.64676439557037,5,1033,163,critical_trial,run0,NA
1153955676,1,bread,4512057078579200,5301208245862400,5,100.80178569846865,7,4427,82,critical_trial,run0,NA
1153955676,10,bread,4696621705068544,5690227727269888,4,80,5,691,78,critical_trial,run0,NA
1153955676,11,bread,5837141898690560,6467393117224960,5,99.48869282486326,2,612,95,critical_trial,run0,NA
1153955676,12,bread,4706969170477056,6679387804008448,2,58.034472514187634,3,945,39,critical_trial,run0,NA
1153955676,13,bread,4588376130846720,5275074091286528,5,90.35485598461214,5,525,91,critical_trial,run0,NA
1153955676,14,bread,6462238451826688,4785026795307008,6,104.08650248711405,7,1490,119,critical_trial,run0,NA
1153955676,15,bread,6589787022557184,6384812522733568,8,133.09019498069722,7,1380,157,critical_trial,run0,NA
1153955676,16,bread,5722698418225152,5917724209315840,1,37.44329045369811,7,1295,6,critical_trial,run0,NA
1153955676,17,bread,5192786494095360,5112461394968576,8,143.40502083260543,7,1026,147,critical_trial,run0,NA
1153955676,18,bread,6087056570712064,5165292915261440,4,78.05767098754612,5,2637,64,critical_trial,run0,NA
1153955676,19,bread,6618717385392128,6415962309918720,9,151.48927354766738,6,1031,166,critical_trial,run0,NA
1153955676,2,bread,5355326226300928,6334006687694848,7,118.25819210524064,5,4245,130,critical_trial,run0,NA
1153955676,20,bread,4674210850930688,6019556508172288,5,92.02173656261873,7,1170,84,critical_trial,run0,NA
1153955676,21,bread,4937218844000256,6314443111661568,2,55.17245689653489,3,1857,36,critical_trial,run0,NA
1153955676,22,bread,5196818612748288,4557891681910784,3,75.43208866258443,2,1119,46,critical_trial,run0,NA
1153955676,23,bread,5928295688306688,5051215396208640,3,70.45565981523414,6,1373,48,critical_trial,run0,NA
1153955676,24,bread,4960131072655360,4809963576754176,2,66.48308055437865,5,1885,33,critical_trial,run0,NA
1153955676,25,bread,5996853831139328,6358669409124352,10,211.02843410308478,7,1342,197,critical_trial,run0,NA
1153955676,26,bread,5481995800936448,5786918983827456,7,130.14222988715076,7,2171,124,attention_check,run0,NA
1153955676,27,bread,5590854536265728,5565220674076672,2,58.240879114244144,7,1484,26,critical_trial,run0,NA
1153955676,28,bread,5205133065453568,5236057568182272,6,110.2905254316979,5,1890,116,critical_trial,run0,NA
1153955676,29,bread,5057106950488064,6622646538076160,9,156.5790535161073,7,2251,168,critical_trial,run0,NA
1153955676,3,bread,6563035751645184,4893404058091520,3,70.00714249274856,6,1124,52,critical_trial,run0,NA
1153955676,30,bread,6038446244102144,5234962267635712,3,75.31268153505093,4,717,56,critical_trial,run0,NA
1153955676,31,bread,6625968498147328,6137759578193920,3,68.6804193347711,5,493,59,critical_trial,run0,NA
1153955676,32,bread,5647064799117312,5171820275695616,7,116.45600027478189,6,472,128,critical_trial,run0,NA
1153955676,33,bread,6510861294239744,6701024460931072,10,184.09780009549272,4,975,182,critical_trial,run0,NA
1153955676,34,bread,6727718769000448,4868310611001344,3,75.45197147855052,6,920,50,critical_trial,run0,NA
1153955676,35,bread,5205542899286016,6436450415411200,7,124.45882853377658,7,959,121,critical_trial,run0,NA
1153955676,36,bread,6626243346694144,5867716999118848,7,132.6386067478093,3,1363,137,critical_trial,run0,NA
1153955676,37,bread,5085614447788032,4830263773233152,7,119.36917525056458,7,922,122,critical_trial,run0,NA
1153955676,38,bread,5744874814963712,6707542673588224,3,67.11929677819934,7,1153,42,critical_trial,run0,NA
1153955676,39,bread,6017845701902336,6215611497578496,2,56.568542494923804,5,764,25,critical_trial,run0,NA
1153955676,4,bread,6141023266799616,5487190345777152,4,84,2,2048,77,critical_trial,run0,NA
1153955676,40,bread,5138470362152960,6237249777696768,5,89.98888820293314,6,773,92,critical_trial,run0,NA
1153955676,41,bread,6429096269578240,5957502250254336,7,122.8087944733601,6,619,132,critical_trial,run0,NA
1153955676,42,bread,5856222525784064,5480653875314688,7,121.00413216084813,7,689,134,critical_trial,run0,NA
1153955676,43,bread,6138211606724608,4685170688917504,3,68.15423684555495,4,692,53,critical_trial,run0,NA
1153955676,44,bread,4806635111317504,4685170688917504,1,48.82622246293481,7,1457,9,critical_trial,run0,NA
1153955676,45,bread,6290239205146624,4558417475665920,8,134.97407158413796,7,5602,148,critical_trial,run0,NA
1153955676,46,bread,5288154615513088,5203904016941056,4,86.33075929238663,7,1533,74,critical_trial,run0,NA
1153955676,47,bread,5113019975598080,6214978379972608,10,191.637678967368,7,1334,189,critical_trial,run0,NA
1153955676,48,bread,4603484299067392,5826439611940864,3,74.02702209328699,2,1221,47,critical_trial,run0,NA
1153955676,49,bread,6496685050036224,5725384249180160,9,161.04657711357916,4,2021,172,critical_trial,run0,NA
1153955676,5,bread,6496685050036224,4813826077753344,8,137.05838172107534,3,1792,156,critical_trial,run0,NA
1153955676,50,bread,6332315288469504,5593199454191616,10,206.90335908341362,5,1017,186,critical_trial,run0,NA
1153955676,51,bread,5944082205507584,5004023893590016,6,101.39033484509261,2,3757,107,attention_check,run0,NA
1153955676,52,bread,5651594232201216,4859015139950592,1,51.85556864985669,1,945,7,critical_trial,run0,NA
1153955676,6,bread,5721906135171072,6584423447265280,6,102.59142264341595,5,955,111,critical_trial,run0,NA
1153955676,7,bread,4925687158800384,6100771890266112,2,55.154328932550705,2,496,40,critical_trial,run0,NA
1153955676,8,bread,5308799332122624,5008995184017408,4,84.75848040166836,1,721,62,critical_trial,run0,NA
1153955676,9,bread,5530798088257536,6112946063147008,4,85.84287972802403,4,363,75,critical_trial,run0,NA
1179433685,1,tree,6341537778630656,6585894687473664,9,112.50777750893491,5,6360,161,critical_trial,run0,NA
1179433685,10,tree,5675218632704000,4600726577741824,9,103.24727599312246,6,1893,168,critical_trial,run0,NA
1179433685,11,tree,4866146731819008,5708735160778752,1,46.09772228646444,7,1269,17,critical_trial,run0,NA
1179433685,12,tree,5114250873798656,5060717059244032,2,56.22277118748239,2,1518,21,critical_trial,run0,NA
1179433685,13,tree,5914386784845824,4840306753142784,9,114.0701538527936,5,1712,175,critical_trial,run0,NA
1179433685,14,tree,5841177574113280,5827807223480320,1,36.013886210738214,4,1677,5,critical_trial,run0,NA
1179433685,15,tree,6560186254753792,5009863518191616,5,73.16419889536138,6,1642,91,critical_trial,run0,NA
1179433685,16,tree,6343973360631808,6632018693586944,8,94.5568612000208,6,1023,160,critical_trial,run0,NA
1179433685,17,tree,6307926773858304,5789507221716992,10,143.7810835958611,7,2839,191,critical_trial,run0,NA
1179433685,18,tree,6663513084788736,4987385538412544,4,64,2,2293,61,critical_trial,run0,NA
1179433685,19,tree,5393230117994496,6606710670098432,8,97.65244492586962,4,1263,144,critical_trial,run0,NA
1179433685,2,tree,5644084460912640,6532474475642880,9,108.90821823902914,3,3068,180,critical_trial,run0,NA
1179433685,20,tree,6659770427637760,5394857726050304,9,103,5,1062,171,critical_trial,run0,NA
1179433685,21,tree,4975705777504256,4891858939412480,6,82.87339742040264,6,1790,103,critical_trial,run0,NA
1179433685,22,tree,6165497533956096,5268265729261568,7,89.88882021697692,4,1957,128,critical_trial,run0,NA
1179433685,23,tree,6471317173829632,6666180834099200,10,121.79490958164057,3,2326,194,critical_trial,run0,NA
1179433685,24,tree,6167007219154944,5766791022247936,10,142.0774436706967,2,1718,200,critical_trial,run0,NA
1179433685,25,tree,5055707562901504,6749607969161216,8,95.58765610684259,3,2438,159,critical_trial,run0,NA
1179433685,26,tree,5765477236211712,6221563919597568,7,89.55445270895244,1,981,130,attention_check,run0,NA
1179433685,27,tree,5134134693330944,6475540087177216,4,67.1863081289633,5,3581,67,critical_trial,run0,NA
1179433685,28,tree,6243335628914688,6381970412011520,5,71,3,1895,97,critical_trial,run0,NA
1179433685,29,tree,5286518522380288,5859979330322432,9,104.04806581575652,2,3982,166,critical_trial,run0,NA
1179433685,3,tree,4559700781694976,6691873160691712,1,40.792156108742276,2,2062,4,critical_trial,run0,NA
1179433685,30,tree,6603145708830720,4681674581344256,8,93.92017887546851,3,1445,152,critical_trial,run0,NA
1179433685,31,tree,4875814367657984,5252928635928576,1,47.265209192385896,4,951,14,critical_trial,run0,NA
1179433685,32,tree,6131339407392768,4915355380088832,5,71,5,901,92,critical_trial,run0,NA
1179433685,33,tree,4514498452914176,5045351679524864,3,57.28001396647874,2,1646,53,critical_trial,run0,NA
1179433685,34,tree,5148873020407808,5830302062608384,4,63.12685640834652,4,2526,70,critical_trial,run0,NA
1179433685,35,tree,5155894339829760,5725838915928064,7,87.20665112249179,4,1284,135,critical_trial,run0,NA
1179433685,36,tree,5796616957067264,6715240580382720,6,81.70679286326198,3,2431,114,critical_trial,run0,NA
1179433685,37,tree,5410446918025216,6311665287036928,1,44.384682042344295,5,1534,18,critical_trial,run0,NA
1179433685,38,tree,5713569683341312,4917750214426624,5,69.1158447825099,3,2222,93,critical_trial,run0,NA
1179433685,39,tree,6435272415772672,6140366757560320,6,81.8413098624405,4,2366,110,critical_trial,run0,NA
1179433685,4,tree,6684022107275264,5337229599703040,6,82.68010643437755,6,1901,118,critical_trial,run0,NA
1179433685,40,tree,6506105289048064,5877076991148032,3,57.3149195236284,5,1197,52,critical_trial,run0,NA
1179433685,41,tree,5577263649128448,5844517297061888,7,89.40357934669059,3,2367,121,critical_trial,run0,NA
1179433685,42,tree,5183785098280960,6704008519483392,1,42.44997055358225,2,1301,12,critical_trial,run0,NA
1179433685,43,tree,6618593166884864,5837754971717632,7,87.05170877128145,5,1374,131,critical_trial,run0,NA
1179433685,44,tree,5183192241799168,4753236034584576,7,92.13576938409967,3,2525,140,critical_trial,run0,NA
1179433685,45,tree,5164092761309184,5899403510415360,2,55.02726596879042,2,1191,32,critical_trial,run0,NA
1179433685,46,tree,6203542975021056,5367574621585408,1,41.048751503547585,5,2509,13,critical_trial,run0,NA
1179433685,47,tree,5161603961978880,6691046576619520,2,54.405882034941776,3,3181,28,critical_trial,run0,NA
1179433685,48,tree,4771622672138240,6399144027488256,4,68.46897107449476,2,2087,73,critical_trial,run0,NA
1179433685,49,tree,5595075864166400,6663567124201472,9,113.7453295744489,5,1919,172,critical_trial,run0,NA
1179433685,5,tree,5591976898461696,4846112856866816,8,97.24710792614863,5,1879,142,critical_trial,run0,NA
1179433685,50,tree,5055632770072576,6179685941641216,4,68.06614430096654,2,2382,71,critical_trial,run0,NA
1179433685,51,tree,5378216153841664,4825033144795136,2,55.60575509783138,1,1286,39,attention_check,run0,NA
1179433685,52,tree,6592054090006528,5794692136435712,5,73.00684899377592,2,3278,88,critical_trial,run0,NA
1179433685,6,tree,5261627857305600,6658538187259904,7,87.28115489611719,4,3325,123,critical_trial,run0,NA
1179433685,7,tree,5397981056466944,5559823997337600,3,57.706152185014034,1,1398,49,critical_trial,run0,NA
1179433685,8,tree,5926676749877248,4681674581344256,3,61.5223536610881,1,1494,50,critical_trial,run0,NA
1179433685,9,tree,6252463373942784,4523862182068224,8,92.9623579735368,3,1511,151,critical_trial,run0,NA
1296653193,1,bread,5106353162944512,5613401130663936,8,137.78606605894515,7,7568,154,critical_trial,run0,NA
1296653193,10,bread,5722698418225152,5917724209315840,1,37.44329045369811,3,2451,6,critical_trial,run0,NA
1296653193,11,bread,6718722540568576,4773339434319872,5,96.08329719571451,4,2205,86,critical_trial,run0,NA
1296653193,12,bread,4674210850930688,6019556508172288,5,92.02173656261873,5,3198,84,critical_trial,run0,NA
1296653193,13,bread,4960131072655360,4809963576754176,2,66.48308055437865,6,2394,33,critical_trial,run0,NA
1296653193,14,bread,6445791277219840,6321989268537344,1,52.43090691567332,2,1587,10,critical_trial,run0,NA
1296653193,15,bread,5827846347948032,5245897371811840,8,142.08800090085018,3,1900,159,critical_trial,run0,NA
1296653193,16,bread,5138400535379968,4597371323285504,5,99.64436762808022,2,2045,90,critical_trial,run0,NA
1296653193,17,bread,4883190625861632,4906501724438528,10,175.524927004685,2,2133,193,critical_trial,run0,NA
1296653193,18,bread,6749882679296000,5683149088489472,8,144.20124826089406,3,2173,150,critical_trial,run0,NA
1296653193,19,bread,5846211812655104,5165932383043584,10,202.4080037943164,2,1305,195,critical_trial,run0,NA
1296653193,2,bread,4871156911833088,6133755125170176,9,152.45327152934436,3,5392,161,critical_trial,run0,NA
1296653193,20,bread,5507829509128192,5139027634159616,10,178.89941307897016,5,2591,190,critical_trial,run0,NA
1296653193,21,bread,6323845130616832,5095247602253824,6,113.7453295744489,4,2041,108,critical_trial,run0,NA
1296653193,22,bread,4823807099404288,6706496714833920,3,75.39230729988306,2,2827,55,critical_trial,run0,NA
1296653193,23,bread,6402266380632064,6114739950190592,6,109.29318368498559,5,3120,104,critical_trial,run0,NA
1296653193,24,bread,6750208023068672,4838273455226880,9,153.88307249337075,6,2250,170,critical_trial,run0,NA
1296653193,25,bread,6087056570712064,5165292915261440,4,78.05767098754612,5,2548,64,critical_trial,run0,NA
1296653193,26,bread,4925687158800384,6100771890266112,2,55.154328932550705,6,1211,40,attention_check,run0,NA
1296653193,27,bread,5385189100355584,6112834557575168,9,150.88074761214565,5,5240,176,critical_trial,run0,NA
1296653193,28,bread,6747649485045760,6749654328803328,2,61.61168720299745,3,2225,31,critical_trial,run0,NA
1296653193,29,bread,5303571232849920,6333377877639168,8,149.40548852033515,7,1973,158,critical_trial,run0,NA
1296653193,3,bread,5530798088257536,6476551229014016,5,96.54014708917737,6,4093,93,critical_trial,run0,NA
1296653193,30,bread,5547682443558912,6665163765710848,4,77.52418977325722,1,1607,66,critical_trial,run0,NA
1296653193,31,bread,4801654475980800,6291120428417024,4,77.41446893184762,2,1996,71,critical_trial,run0,NA
1296653193,32,bread,5015407364669440,5889453543391232,1,38.01315561749642,1,1799,19,critical_trial,run0,NA
1296653193,33,bread,6332315288469504,5593199454191616,10,206.90335908341362,7,1594,186,critical_trial,run0,NA
1296653193,34,bread,6132053298905088,5244845192904704,8,143.13629868066312,3,2666,145,critical_trial,run0,NA
1296653193,35,bread,6138211606724608,6526906755186688,1,42.941821107167776,2,2767,8,critical_trial,run0,NA
1296653193,36,bread,4774223929147392,6438204339126272,4,79.20858539325141,3,1427,80,critical_trial,run0,NA
1296653193,37,bread,4808817424465920,5883436562644992,9,159.15401345866212,5,2487,171,critical_trial,run0,NA
1296653193,38,bread,6589787022557184,6384812522733568,8,133.09019498069722,7,2545,157,critical_trial,run0,NA
1296653193,39,bread,6278667040718848,5380090357612544,8,138.6542462386205,5,2470,142,critical_trial,run0,NA
1296653193,4,bread,6626243346694144,5867716999118848,7,132.6386067478093,2,2024,137,critical_trial,run0,NA
1296653193,40,bread,6625968498147328,6137759578193920,3,68.6804193347711,6,2178,59,critical_trial,run0,NA
1296653193,41,bread,6384812522733568,4922011958640640,9,166.715326230074,7,1407,162,critical_trial,run0,NA
1296653193,42,bread,4588376130846720,5275074091286528,5,90.35485598461214,7,2418,91,critical_trial,run0,NA
1296653193,43,bread,5481995800936448,5786918983827456,7,130.14222988715076,7,1537,124,critical_trial,run0,NA
1296653193,44,bread,6213338503577600,6747917865975808,5,88.48163651289458,3,1743,94,critical_trial,run0,NA
1296653193,45,bread,6713282566029312,6279235247276032,8,138.01449199268893,4,2519,149,critical_trial,run0,NA
1296653193,46,bread,6703616133955584,6112946063147008,1,34.785054261852174,2,2030,16,critical_trial,run0,NA
1296653193,47,bread,5097250768289792,4534849647935488,8,138.2316895650198,7,3354,160,critical_trial,run0,NA
1296653193,48,bread,4993213125361664,5672293961302016,2,65.62011886609167,5,2145,27,critical_trial,run0,NA
1296653193,49,bread,6378928467869696,5636664804245504,6,111.80339887498948,7,1550,112,critical_trial,run0,NA
1296653193,5,bread,5030435874668544,5345981434429440,3,70.40596565632774,6,4992,57,critical_trial,run0,NA
1296653193,50,bread,4937218844000256,6314443111661568,2,55.17245689653489,4,2171,36,critical_trial,run0,NA
1296653193,51,bread,4705301078999040,4803424270942208,4,78.39005038906404,1,1432,69,attention_check,run0,NA
1296653193,52,bread,6141023266799616,5487190345777152,4,84,3,2117,77,critical_trial,run0,NA
1296653193,6,bread,5760162193211392,5636664804245504,5,90.82400563727631,7,1789,88,critical_trial,run0,NA
1296653193,7,bread,6131525416386560,6232117459550208,7,132.9661611087573,2,2129,127,critical_trial,run0,NA
1296653193,8,bread,4693938105483264,6617681694294016,10,197.42846805868703,4,1932,181,critical_trial,run0,NA
1296653193,9,bread,6332351040716800,6467672042635264,4,82.00609733428362,6,2827,61,critical_trial,run0,NA
1318665529,1,tree,6243335628914688,6381970412011520,5,71,3,4246,97,critical_trial,run0,NA
1318665529,10,tree,6471317173829632,6666180834099200,10,121.79490958164057,6,4894,194,critical_trial,run0,NA
1318665529,11,tree,6610673314299904,5623310995947520,8,95.524865872714,3,11858,158,critical_trial,run0,NA
1318665529,12,tree,6329527238131712,6697642375512064,9,112.96902230257638,6,2430,179,critical_trial,run0,NA
1318665529,13,tree,6603145708830720,4681674581344256,8,93.92017887546851,4,1977,152,critical_trial,run0,NA
1318665529,14,tree,5579564220678144,5499033231556608,7,90.62008607367353,5,3478,137,critical_trial,run0,NA
1318665529,15,tree,4507637007777792,5506359007117312,7,88.60022573334675,2,2150,129,critical_trial,run0,NA
1318665529,16,tree,6618593166884864,5837754971717632,7,87.05170877128145,2,4925,131,critical_trial,run0,NA
1318665529,17,tree,6372027596275712,6067248483532800,4,63.56099432828282,6,3493,66,critical_trial,run0,NA
1318665529,18,tree,4592989026385920,5001874006605824,8,93.40770846134703,2,1814,155,critical_trial,run0,NA
1318665529,19,tree,6264148910407680,6174156326436864,3,58.728187440104094,1,1144,46,critical_trial,run0,NA
1318665529,2,tree,4866146731819008,5708735160778752,1,46.09772228646444,6,4948,17,critical_trial,run0,NA
1318665529,20,tree,6042332719742976,5701759697682432,6,81.58431221748455,3,1819,105,critical_trial,run0,NA
1318665529,21,tree,5776773335744512,5920154254835712,7,85.63293758829018,2,1311,133,critical_trial,run0,NA
1318665529,22,tree,5591976898461696,4846112856866816,8,97.24710792614863,6,1990,142,critical_trial,run0,NA
1318665529,23,tree,5902174435409920,5574339447488512,10,132,5,2965,186,critical_trial,run0,NA
1318665529,24,tree,5144799529140224,6285104324280320,8,95.1892851112981,6,2511,143,critical_trial,run0,NA
1318665529,25,tree,5977442474786816,5726178365145088,10,137.00364958642524,6,3414,195,critical_trial,run0,NA
1318665529,26,tree,4994591117803520,6102497246576640,6,83.21658488546619,1,1613,116,attention_check,run0,NA
1318665529,27,tree,4604872747909120,6580511281512448,4,68.6804193347711,7,1793,74,critical_trial,run0,NA
1318665529,28,tree,5997606327025664,5596979495174144,1,42.42640687119285,4,2915,11,critical_trial,run0,NA
1318665529,29,tree,5765477236211712,6221563919597568,7,89.55445270895244,6,1620,130,critical_trial,run0,NA
1318665529,3,tree,6571670984720384,5963324430745600,5,73.10950690573696,3,3846,94,critical_trial,run0,NA
1318665529,30,tree,6203542975021056,5367574621585408,1,41.048751503547585,6,1566,13,critical_trial,run0,NA
1318665529,31,tree,4708881638883328,5367125659090944,10,117.51595636338071,4,4143,187,critical_trial,run0,NA
1318665529,32,tree,6165497533956096,5268265729261568,7,89.88882021697692,6,2230,128,critical_trial,run0,NA
1318665529,33,tree,5113119821004800,4958919220789248,6,82.29216244576394,6,7400,108,critical_trial,run0,NA
1318665529,34,tree,5183785098280960,6704008519483392,1,42.44997055358225,4,1911,12,critical_trial,run0,NA
1318665529,35,tree,6338419292635136,5895470259896320,7,84.71717653463199,6,1507,132,critical_trial,run0,NA
1318665529,36,tree,5644084460912640,6532474475642880,9,108.90821823902914,6,1246,180,critical_trial,run0,NA
1318665529,37,tree,5118934401417216,5748403667468288,3,61.5223536610881,2,1294,42,critical_trial,run0,NA
1318665529,38,tree,4793407400574976,5021520449503232,4,66.64833081180653,2,1777,64,critical_trial,run0,NA
1318665529,39,tree,6341537778630656,6585894687473664,9,112.50777750893491,3,2468,161,critical_trial,run0,NA
1318665529,4,tree,4964647931215872,5411631251062784,10,135.72398461583714,4,3661,192,critical_trial,run0,NA
1318665529,40,tree,4659614236803072,6393343753846784,1,48.54894437575342,5,2246,2,critical_trial,run0,NA
1318665529,41,tree,4607559971373056,5835679013535744,9,107,6,1285,165,critical_trial,run0,NA
1318665529,42,tree,5333845102559232,6475577814941696,6,79.05694150420949,6,3196,113,critical_trial,run0,NA
1318665529,43,tree,5532733088464896,6397449797107712,10,123.36936410632909,6,2122,188,critical_trial,run0,NA
1318665529,44,tree,5112301692649472,6337442959327232,5,74.96665925596525,5,2013,100,critical_trial,run0,NA
1318665529,45,tree,5183192241799168,4753236034584576,7,92.13576938409967,5,2191,140,critical_trial,run0,NA
1318665529,46,tree,6487434462232576,6140366757560320,6,83.73768566183328,3,1464,120,critical_trial,run0,NA
1318665529,47,tree,5827807223480320,6031422261297152,8,95.0789145920377,3,2799,149,critical_trial,run0,NA
1318665529,48,tree,5393230117994496,6606710670098432,8,97.65244492586962,6,1213,144,critical_trial,run0,NA
1318665529,49,tree,4875814367657984,5252928635928576,1,47.265209192385896,2,1831,14,critical_trial,run0,NA
1318665529,5,tree,6098342918488064,4703567510241280,6,80.77747210701756,6,2683,117,critical_trial,run0,NA
1318665529,50,tree,5702695061028864,4875461744132096,2,52.20153254455275,2,1174,29,critical_trial,run0,NA
1318665529,51,tree,5107052588302336,5169473847820288,4,67.62396025078685,1,1030,75,attention_check,run0,NA
1318665529,52,tree,5378216153841664,4825033144795136,2,55.60575509783138,4,1894,39,critical_trial,run0,NA
1318665529,6,tree,5009873450303488,6279764618772480,4,64.32728814430156,4,2700,65,critical_trial,run0,NA
1318665529,7,tree,6381970412011520,4752045758218240,4,66.70832032063167,7,2698,77,critical_trial,run0,NA
1318665529,8,tree,5777096410398720,6123923475267584,7,87.28115489611719,5,4745,125,critical_trial,run0,NA
1318665529,9,tree,5706205446012928,5886855977369600,10,119.54078801814885,3,3294,190,critical_trial,run0,NA
1526875866,1,bread,5928295688306688,5051215396208640,3,70.45565981523414,7,7815,48,critical_trial,run0,NA
1526875866,10,bread,5018645451243520,6746778944667648,6,108.04628637764465,7,3024,102,critical_trial,run0,NA
1526875866,11,bread,4693938105483264,6617681694294016,10,197.42846805868703,6,3405,181,critical_trial,run0,NA
1526875866,12,bread,4774223929147392,6438204339126272,4,79.20858539325141,3,3669,80,critical_trial,run0,NA
1526875866,13,bread,5775278867480576,5205907686293504,2,64.19501538281614,3,4209,22,critical_trial,run0,NA
1526875866,14,bread,5303571232849920,6333377877639168,8,149.40548852033515,5,4545,158,critical_trial,run0,NA
1526875866,15,bread,4653333350449152,6697488574578688,6,110.11357772772621,5,3694,115,critical_trial,run0,NA
1526875866,16,bread,4993213125361664,5672293961302016,2,65.62011886609167,5,6409,27,critical_trial,run0,NA
1526875866,17,bread,5544098662449152,5889453543391232,1,53.33854141237835,4,2993,17,critical_trial,run0,NA
1526875866,18,bread,5164322542059520,4553901250445312,7,128.63125592172378,3,2721,133,critical_trial,run0,NA
1526875866,19,bread,5563572501348352,4862302434099200,6,109.65856099730654,7,8915,105,critical_trial,run0,NA
1526875866,2,bread,5464578739666944,6406059121967104,5,99.98499887483122,7,5787,81,critical_trial,run0,NA
1526875866,20,bread,4706969170477056,6679387804008448,2,58.034472514187634,6,4588,39,critical_trial,run0,NA
1526875866,21,bread,4835178172121088,6368627156582400,9,166.19265928433782,6,6537,173,critical_trial,run0,NA
1526875866,22,bread,5355326226300928,6334006687694848,7,118.25819210524064,7,3491,130,critical_trial,run0,NA
1526875866,23,bread,6447242103750656,4576082256723968,8,139.26234236145822,7,3143,146,critical_trial,run0,NA
1526875866,24,bread,6445791277219840,6321989268537344,1,52.43090691567332,5,4411,10,critical_trial,run0,NA
1526875866,25,bread,5196818612748288,4557891681910784,3,75.43208866258443,6,6813,46,critical_trial,run0,NA
1526875866,26,bread,6747649485045760,6749654328803328,2,61.61168720299745,1,3581,31,attention_check,run0,NA
1526875866,27,bread,6138211606724608,6526906755186688,1,42.941821107167776,2,1708,8,critical_trial,run0,NA
1526875866,28,bread,6326609076289536,6557657190105088,4,76.6550715869472,2,2547,63,critical_trial,run0,NA
1526875866,29,bread,6563035751645184,4893404058091520,3,70.00714249274856,6,3727,52,critical_trial,run0,NA
1526875866,3,bread,5530798088257536,6476551229014016,5,96.54014708917737,4,4050,93,critical_trial,run0,NA
1526875866,30,bread,5647064799117312,5171820275695616,7,116.45600027478189,7,2592,128,critical_trial,run0,NA
1526875866,31,bread,5522072862195712,6151037725442048,10,178.71765441612084,2,6818,194,critical_trial,run0,NA
1526875866,32,bread,4674210850930688,6019556508172288,5,92.02173656261873,7,5705,84,critical_trial,run0,NA
1526875866,33,bread,6116265301114880,6200665334349824,9,170.09703113223347,7,3423,180,critical_trial,run0,NA
1526875866,34,bread,6407123434995712,5866014464016384,2,56.08029957123981,3,5723,35,critical_trial,run0,NA
1526875866,35,bread,5890358321872896,4872495620423680,8,135.72398461583714,6,9508,152,critical_trial,run0,NA
1526875866,36,bread,5038028525404160,5331899549483008,7,125.41929676090518,6,3468,138,critical_trial,run0,NA
1526875866,37,bread,5992469994930176,5655140797251584,10,183.3930205869351,6,7852,199,critical_trial,run0,NA
1526875866,38,bread,5733702577422336,6224960148209664,7,124.90396310766124,4,4070,125,critical_trial,run0,NA
1526875866,39,bread,5387131901968384,4774223929147392,4,83.64807230295268,7,5835,76,critical_trial,run0,NA
1526875866,4,bread,5371470186283008,6355479506714624,4,79.81227975693966,5,5471,68,critical_trial,run0,NA
1526875866,40,bread,6067738042695680,6244417541242880,5,99.62429422585637,7,3686,96,critical_trial,run0,NA
1526875866,41,bread,5623729692344320,6536574558797824,1,52.69724850502159,3,8538,1,critical_trial,run0,NA
1526875866,42,bread,5357625262735360,4772489919987712,2,60.41522986797286,7,2981,24,critical_trial,run0,NA
1526875866,43,bread,6688507328200704,5998211846111232,5,88.23264701911646,7,2467,83,critical_trial,run0,NA
1526875866,44,bread,4603484299067392,6456419710664704,3,72.49827584156743,7,1577,49,critical_trial,run0,NA
1526875866,45,bread,6171467471388672,6212038743293952,5,90.02777349240623,4,6036,100,critical_trial,run0,NA
1526875866,46,bread,6478436367335424,5114910465851392,9,163.24827717314508,6,6799,179,critical_trial,run0,NA
1526875866,47,bread,6132053298905088,5244845192904704,8,143.13629868066312,7,3563,145,critical_trial,run0,NA
1526875866,48,bread,5383724180963328,4838273455226880,2,62.625873247404705,6,15286,30,critical_trial,run0,NA
1526875866,49,bread,6438206822154240,4803814508986368,4,80.4114419718985,7,4326,73,critical_trial,run0,NA
1526875866,5,bread,6060647567589376,4905727405588480,2,55.326304774492215,5,3282,32,critical_trial,run0,NA
1526875866,50,bread,4936112269164544,4755338572070912,4,78.89233169326408,7,4252,67,critical_trial,run0,NA
1526875866,51,bread,5481995800936448,6382855632453632,1,49.040799340956916,1,2271,13,attention_check,run0,NA
1526875866,52,bread,5113019975598080,6214978379972608,10,191.637678967368,5,5328,189,critical_trial,run0,NA
1526875866,6,bread,6481629813932032,5812575105187840,5,93.7709976485267,2,4077,85,critical_trial,run0,NA
1526875866,7,bread,6278667040718848,5380090357612544,8,138.6542462386205,5,3062,142,critical_trial,run0,NA
1526875866,8,bread,5556117507670016,4553789262528512,10,187.18172987767795,5,3385,188,critical_trial,run0,NA
1526875866,9,bread,5744874814963712,6707542673588224,3,67.11929677819934,6,2555,42,critical_trial,run0,NA
1648232991,1,tree,5393230117994496,6606710670098432,8,97.65244492586962,5,3965,144,critical_trial,run0,NA
1648232991,10,tree,5164092761309184,5899403510415360,2,55.02726596879042,2,966,32,critical_trial,run0,NA
1648232991,11,tree,4834441937551360,5745391112814592,9,116.27553482998907,5,1688,170,critical_trial,run0,NA
1648232991,12,tree,5909216902512640,6176961757970432,6,81.32035415564789,7,3641,104,critical_trial,run0,NA
1648232991,13,tree,4667853879902208,6346891920932864,10,135.94484175576505,7,1658,189,critical_trial,run0,NA
1648232991,14,tree,6042332719742976,5701759697682432,6,81.58431221748455,4,1193,105,critical_trial,run0,NA
1648232991,15,tree,5579564220678144,5499033231556608,7,90.62008607367353,2,1051,137,critical_trial,run0,NA
1648232991,16,tree,5914386784845824,4840306753142784,9,114.0701538527936,2,1424,175,critical_trial,run0,NA
1648232991,17,tree,5130379159666688,4646269303652352,10,128.03515142334936,5,1212,198,critical_trial,run0,NA
1648232991,18,tree,4742438486802432,6227319846862848,2,56.293871780150276,2,998,30,critical_trial,run0,NA
1648232991,19,tree,6362162056396800,5411631251062784,3,60.108235708594876,5,1085,41,critical_trial,run0,NA
1648232991,2,tree,6509219673014272,5009873450303488,2,50.48762224545735,2,2610,33,critical_trial,run0,NA
1648232991,20,tree,5427139807543296,5782657822621696,2,54.08326913195984,2,2355,40,critical_trial,run0,NA
1648232991,21,tree,5039160815517696,5273307853094912,2,53.009433122794285,4,1382,37,critical_trial,run0,NA
1648232991,22,tree,5104298172088320,6005399176085504,7,86.95401083331349,5,1494,122,critical_trial,run0,NA
1648232991,23,tree,5512375149002752,6085611746230272,3,59.21148537234985,1,1307,59,critical_trial,run0,NA
1648232991,24,tree,6318835097403392,5877961469198336,5,74.33034373659252,2,892,81,critical_trial,run0,NA
1648232991,25,tree,6243335628914688,6381970412011520,5,71,2,1334,97,critical_trial,run0,NA
1648232991,26,tree,6165497533956096,5268265729261568,7,89.88882021697692,7,1290,128,attention_check,run0,NA
1648232991,27,tree,4754237751820288,6231969887158272,5,72.94518489934754,6,2613,85,critical_trial,run0,NA
1648232991,28,tree,4793407400574976,5021520449503232,4,66.64833081180653,1,1572,64,critical_trial,run0,NA
1648232991,29,tree,6435272415772672,6140366757560320,6,81.8413098624405,1,2353,110,critical_trial,run0,NA
1648232991,3,tree,5902174435409920,5574339447488512,10,132,2,4074,186,critical_trial,run0,NA
1648232991,30,tree,5484525100466176,6048833744142336,6,80.2122185206219,3,1228,106,critical_trial,run0,NA
1648232991,31,tree,6560186254753792,5009863518191616,5,73.16419889536138,7,2843,91,critical_trial,run0,NA
1648232991,32,tree,5107052588302336,5169473847820288,4,67.62396025078685,4,1375,75,critical_trial,run0,NA
1648232991,33,tree,4707338638327808,6739835475722240,8,93.40770846134703,3,1543,148,critical_trial,run0,NA
1648232991,34,tree,6381970412011520,4752045758218240,4,66.70832032063167,4,1014,77,critical_trial,run0,NA
1648232991,35,tree,6047872673906688,5483012739301376,5,70.61161377563892,5,1816,99,critical_trial,run0,NA
1648232991,36,tree,5890820802609152,5195205030445056,2,51.97114584074513,6,1077,35,critical_trial,run0,NA
1648232991,37,tree,4929169806852096,4841224265531392,6,76,6,948,101,critical_trial,run0,NA
1648232991,38,tree,6745743723331584,6094151017824256,6,75.96051605933177,3,1690,112,critical_trial,run0,NA
1648232991,39,tree,5977442474786816,5726178365145088,10,137.00364958642524,6,1170,195,critical_trial,run0,NA
1648232991,4,tree,5183785098280960,6704008519483392,1,42.44997055358225,1,1241,12,critical_trial,run0,NA
1648232991,40,tree,6307926773858304,5789507221716992,10,143.7810835958611,6,1057,191,critical_trial,run0,NA
1648232991,41,tree,4507637007777792,5506359007117312,7,88.60022573334675,1,1188,129,critical_trial,run0,NA
1648232991,42,tree,6492093763551232,5944161578516480,10,120.01666550941998,6,5202,199,critical_trial,run0,NA
1648232991,43,tree,5546023545995264,6055544374689792,9,106.7941945987702,1,1112,162,critical_trial,run0,NA
1648232991,44,tree,6571670984720384,5963324430745600,5,73.10950690573696,1,1336,94,critical_trial,run0,NA
1648232991,45,tree,4863967757336576,5347951129919488,10,151.21177202850313,3,6820,181,critical_trial,run0,NA
1648232991,46,tree,5644084460912640,6532474475642880,9,108.90821823902914,5,1191,180,critical_trial,run0,NA
1648232991,47,tree,6341537778630656,6585894687473664,9,112.50777750893491,5,1585,161,critical_trial,run0,NA
1648232991,48,tree,6167007219154944,5766791022247936,10,142.0774436706967,3,1445,200,critical_trial,run0,NA
1648232991,49,tree,4730719286853632,5325080026415104,1,47.01063709417264,2,1206,7,critical_trial,run0,NA
1648232991,5,tree,4656344177049600,5687001888063488,10,133.18408313308313,2,1359,197,critical_trial,run0,NA
1648232991,50,tree,5130195000360960,4640703244140544,7,92.65527507918802,2,1305,136,critical_trial,run0,NA
1648232991,51,tree,6506105289048064,5877076991148032,3,57.3149195236284,1,1349,52,attention_check,run0,NA
1648232991,52,tree,6270145355841536,6556114139217920,9,113.35784048754634,3,2038,164,critical_trial,run0,NA
1648232991,6,tree,6582563558653952,5044755949944832,8,102.39628899525607,2,1306,157,critical_trial,run0,NA
1648232991,7,tree,5715537835327488,6207996487008256,3,61.84658438426491,3,927,55,critical_trial,run0,NA
1648232991,8,tree,5161603961978880,6691046576619520,2,54.405882034941776,4,1527,28,critical_trial,run0,NA
1648232991,9,tree,5114250873798656,5060717059244032,2,56.22277118748239,3,5995,21,critical_trial,run0,NA
1693524344,1,tree,6098342918488064,4703567510241280,6,80.77747210701756,5,4946,117,critical_trial,run0,NA
1693524344,10,tree,5579984255057920,5039879870218240,3,58.52349955359813,5,2024,51,critical_trial,run0,NA
1693524344,11,tree,5706205446012928,5886855977369600,10,119.54078801814885,3,1914,190,critical_trial,run0,NA
1693524344,12,tree,5183192241799168,6576084143308800,9,114.03946685248927,5,4050,167,critical_trial,run0,NA
1693524344,13,tree,6506105289048064,5877076991148032,3,57.3149195236284,7,2135,52,critical_trial,run0,NA
1693524344,14,tree,4793407400574976,5021520449503232,4,66.64833081180653,3,1882,64,critical_trial,run0,NA
1693524344,15,tree,5796616957067264,5103641830621184,8,96.5090669315583,4,3683,156,critical_trial,run0,NA
1693524344,16,tree,4746912655736832,6346891920932864,10,141.088624630053,7,4179,183,critical_trial,run0,NA
1693524344,17,tree,6232507345272832,5200899423076352,6,81.39410298049853,7,1201,107,critical_trial,run0,NA
1693524344,18,tree,5104298172088320,6005399176085504,7,86.95401083331349,7,1086,122,critical_trial,run0,NA
1693524344,19,tree,6270145355841536,6556114139217920,9,113.35784048754634,2,2330,164,critical_trial,run0,NA
1693524344,2,tree,6165497533956096,5268265729261568,7,89.88882021697692,7,3924,128,critical_trial,run0,NA
1693524344,20,tree,5656537441763328,6617903266791424,3,61.84658438426491,6,6926,54,critical_trial,run0,NA
1693524344,21,tree,4592989026385920,5001874006605824,8,93.40770846134703,5,5735,155,critical_trial,run0,NA
1693524344,22,tree,6696130446360576,4748950617718784,6,81.49846624323675,7,2378,115,critical_trial,run0,NA
1693524344,23,tree,4834441937551360,5745391112814592,9,116.27553482998907,5,2188,170,critical_trial,run0,NA
1693524344,24,tree,4659614236803072,6393343753846784,1,48.54894437575342,3,1817,2,critical_trial,run0,NA
1693524344,25,tree,5118934401417216,5748403667468288,3,61.5223536610881,3,1897,42,critical_trial,run0,NA
1693524344,26,tree,5702695061028864,4875461744132096,2,52.20153254455275,1,3469,29,attention_check,run0,NA
1693524344,27,tree,6302376669478912,6585894687473664,3,58.249463516842795,5,3141,44,critical_trial,run0,NA
1693524344,28,tree,5909216902512640,6176961757970432,6,81.32035415564789,7,2028,104,critical_trial,run0,NA
1693524344,29,tree,4667853879902208,6346891920932864,10,135.94484175576505,7,1808,189,critical_trial,run0,NA
1693524344,3,tree,6573084209315840,6410852137697280,3,58.83026432033091,5,1652,48,critical_trial,run0,NA
1693524344,30,tree,6601115938324480,5103015675559936,8,100.42410069301094,3,1890,147,critical_trial,run0,NA
1693524344,31,tree,6659770427637760,5394857726050304,9,103,4,2434,171,critical_trial,run0,NA
1693524344,32,tree,4730719286853632,5325080026415104,1,47.01063709417264,2,2100,7,critical_trial,run0,NA
1693524344,33,tree,5107052588302336,5169473847820288,4,67.62396025078685,5,2851,75,critical_trial,run0,NA
1693524344,34,tree,4661648457465856,5022978049835008,1,36.40054944640259,2,2392,20,critical_trial,run0,NA
1693524344,35,tree,4962187703484416,5432947106643968,5,69.85699678629192,4,1722,86,critical_trial,run0,NA
1693524344,36,tree,5397981056466944,5559823997337600,3,57.706152185014034,2,2304,49,critical_trial,run0,NA
1693524344,37,tree,6372027596275712,6067248483532800,4,63.56099432828282,4,3350,66,critical_trial,run0,NA
1693524344,38,tree,5055632770072576,6179685941641216,4,68.06614430096654,3,1719,71,critical_trial,run0,NA
1693524344,39,tree,5378216153841664,4825033144795136,2,55.60575509783138,4,2516,39,critical_trial,run0,NA
1693524344,4,tree,6243335628914688,6381970412011520,5,71,5,2526,97,critical_trial,run0,NA
1693524344,40,tree,5129032486092800,4885966042955776,7,90.09439494219383,4,10833,134,critical_trial,run0,NA
1693524344,41,tree,5130379159666688,4646269303652352,10,128.03515142334936,5,6547,198,critical_trial,run0,NA
1693524344,42,tree,6571670984720384,5963324430745600,5,73.10950690573696,3,2488,94,critical_trial,run0,NA
1693524344,43,tree,5931543690215424,5402923842404352,4,66.88796603276258,5,2079,76,critical_trial,run0,NA
1693524344,44,tree,6663513084788736,4987385538412544,4,64,2,2108,61,critical_trial,run0,NA
1693524344,45,tree,5532733088464896,6397449797107712,10,123.36936410632909,5,1521,188,critical_trial,run0,NA
1693524344,46,tree,5502021924814848,5291858756370432,1,48.33218389437829,4,2514,1,critical_trial,run0,NA
1693524344,47,tree,4975705777504256,6110962455150592,9,103.73041983911952,7,1717,176,critical_trial,run0,NA
1693524344,48,tree,5713569683341312,4917750214426624,5,69.1158447825099,2,2546,93,critical_trial,run0,NA
1693524344,49,tree,6684022107275264,5337229599703040,6,82.68010643437755,7,1710,118,critical_trial,run0,NA
1693524344,5,tree,5498678397632512,6098342918488064,4,67.11929677819934,4,2422,62,critical_trial,run0,NA
1693524344,50,tree,5416359288635392,4578476117983232,2,53.16013544000805,7,1830,34,critical_trial,run0,NA
1693524344,51,tree,5155894339829760,5725838915928064,7,87.20665112249179,1,1919,135,attention_check,run0,NA
1693524344,52,tree,6331931224440832,6058036227473408,5,71.386273190299,3,1635,87,critical_trial,run0,NA
1693524344,6,tree,4507637007777792,5506359007117312,7,88.60022573334675,5,1864,129,critical_trial,run0,NA
1693524344,7,tree,4942365473112064,4616725163147264,9,107.22872749408155,4,2314,177,critical_trial,run0,NA
1693524344,8,tree,4656344177049600,5687001888063488,10,133.18408313308313,3,1659,197,critical_trial,run0,NA
1693524344,9,tree,5286518522380288,5859979330322432,9,104.04806581575652,5,1708,166,critical_trial,run0,NA
1991342715,1,tree,5997606327025664,5596979495174144,1,42.42640687119285,4,6490,11,critical_trial,run0,NA
1991342715,10,tree,6435272415772672,6140366757560320,6,81.8413098624405,6,1885,110,critical_trial,run0,NA
1991342715,11,tree,5921583124185088,4626048664731648,8,98.73196037757987,4,2766,141,critical_trial,run0,NA
1991342715,12,tree,5902174435409920,5574339447488512,10,132,3,2301,186,critical_trial,run0,NA
1991342715,13,tree,6592054090006528,5794692136435712,5,73.00684899377592,3,1340,88,critical_trial,run0,NA
1991342715,14,tree,5713569683341312,4917750214426624,5,69.1158447825099,6,2000,93,critical_trial,run0,NA
1991342715,15,tree,6506105289048064,5877076991148032,3,57.3149195236284,5,5701,52,critical_trial,run0,NA
1991342715,16,tree,5047015186628608,6209153632567296,1,45.0111097397076,4,2357,9,critical_trial,run0,NA
1991342715,17,tree,5427139807543296,5782657822621696,2,54.08326913195984,3,1449,40,critical_trial,run0,NA
1991342715,18,tree,5776773335744512,5920154254835712,7,85.63293758829018,3,1653,133,critical_trial,run0,NA
1991342715,19,tree,4833264831299584,6299933638393856,4,67.47592163134935,3,1235,69,critical_trial,run0,NA
1991342715,2,tree,4742438486802432,6227319846862848,2,56.293871780150276,5,2595,30,critical_trial,run0,NA
1991342715,20,tree,5397981056466944,5559823997337600,3,57.706152185014034,2,2129,49,critical_trial,run0,NA
1991342715,21,tree,6307926773858304,5789507221716992,10,143.7810835958611,4,2283,191,critical_trial,run0,NA
1991342715,22,tree,6250544093986816,5563124864253952,8,93.08598175880189,6,1491,146,critical_trial,run0,NA
1991342715,23,tree,4975705777504256,4891858939412480,6,82.87339742040264,4,2915,103,critical_trial,run0,NA
1991342715,24,tree,5112301692649472,6337442959327232,5,74.96665925596525,5,1545,100,critical_trial,run0,NA
1991342715,25,tree,4993606987284480,6215830910009344,2,54.037024344425184,5,1494,25,critical_trial,run0,NA
1991342715,26,tree,6509219673014272,5009873450303488,2,50.48762224545735,1,3653,33,attention_check,run0,NA
1991342715,27,tree,6172709857787904,5586847570853888,4,63.56886030125127,4,2431,68,critical_trial,run0,NA
1991342715,28,tree,6381970412011520,4752045758218240,4,66.70832032063167,5,2133,77,critical_trial,run0,NA
1991342715,29,tree,6270145355841536,6556114139217920,9,113.35784048754634,6,1662,164,critical_trial,run0,NA
1991342715,3,tree,6329527238131712,6697642375512064,9,112.96902230257638,3,2574,179,critical_trial,run0,NA
1991342715,30,tree,5914386784845824,4840306753142784,9,114.0701538527936,6,1519,175,critical_trial,run0,NA
1991342715,31,tree,4975705777504256,6110962455150592,9,103.73041983911952,7,5797,176,critical_trial,run0,NA
1991342715,32,tree,6264148910407680,6174156326436864,3,58.728187440104094,3,2658,46,critical_trial,run0,NA
1991342715,33,tree,5717789341908992,6161991028703232,1,46.75467891024384,5,2303,15,critical_trial,run0,NA
1991342715,34,tree,6271033923338240,5775386208108544,5,75.28612089887484,5,1379,95,critical_trial,run0,NA
1991342715,35,tree,6666113066729472,4917750214426624,9,111.64676439557037,4,1382,163,critical_trial,run0,NA
1991342715,36,tree,4834441937551360,5745391112814592,9,116.27553482998907,5,1427,170,critical_trial,run0,NA
1991342715,37,tree,4964647931215872,5411631251062784,10,135.72398461583714,5,1122,192,critical_trial,run0,NA
1991342715,38,tree,5939441929551872,6199291964030976,3,60.67124524847005,5,1144,56,critical_trial,run0,NA
1991342715,39,tree,5129032486092800,4885966042955776,7,90.09439494219383,4,1992,134,critical_trial,run0,NA
1991342715,4,tree,5579564220678144,5499033231556608,7,90.62008607367353,4,2060,137,critical_trial,run0,NA
1991342715,40,tree,5715537835327488,6207996487008256,3,61.84658438426491,5,1619,55,critical_trial,run0,NA
1991342715,41,tree,4604872747909120,6580511281512448,4,68.6804193347711,5,2325,74,critical_trial,run0,NA
1991342715,42,tree,6362162056396800,5411631251062784,3,60.108235708594876,5,1057,41,critical_trial,run0,NA
1991342715,43,tree,5191090451775488,5540948224245760,4,67.17886572427373,5,1905,78,critical_trial,run0,NA
1991342715,44,tree,6659770427637760,5394857726050304,9,103,6,1935,171,critical_trial,run0,NA
1991342715,45,tree,6610673314299904,5623310995947520,8,95.524865872714,4,1447,158,critical_trial,run0,NA
1991342715,46,tree,5417418534944768,5708454767362048,4,65.25335240430181,5,1346,72,critical_trial,run0,NA
1991342715,47,tree,6296935361150976,5890793690628096,2,54.817880294662984,6,4615,27,critical_trial,run0,NA
1991342715,48,tree,4659614236803072,6393343753846784,1,48.54894437575342,5,1885,2,critical_trial,run0,NA
1991342715,49,tree,5393230117994496,6606710670098432,8,97.65244492586962,6,2310,144,critical_trial,run0,NA
1991342715,5,tree,6492093763551232,5944161578516480,10,120.01666550941998,6,1711,199,critical_trial,run0,NA
1991342715,50,tree,5183192241799168,6576084143308800,9,114.03946685248927,3,1765,167,critical_trial,run0,NA
1991342715,51,tree,5532733088464896,6397449797107712,10,123.36936410632909,1,3274,188,attention_check,run0,NA
1991342715,52,tree,5796616957067264,5103641830621184,8,96.5090669315583,5,2881,156,critical_trial,run0,NA
1991342715,6,tree,6302376669478912,6585894687473664,3,58.249463516842795,5,2001,44,critical_trial,run0,NA
1991342715,7,tree,5904019270664192,5241475400990720,2,55.97320787662612,4,1882,38,critical_trial,run0,NA
1991342715,8,tree,6341537778630656,6585894687473664,9,112.50777750893491,5,1674,161,critical_trial,run0,NA
1991342715,9,tree,5661171501760512,5966033485561856,2,50.695167422546305,3,2853,26,critical_trial,run0,NA
2128672853,1,bread,6138211606724608,6526906755186688,1,42.941821107167776,7,6573,8,critical_trial,run0,NA
2128672853,10,bread,4553981596532736,5760679489306624,5,96.13532129243653,7,54456,99,critical_trial,run0,NA
2128672853,11,bread,6496685050036224,5725384249180160,9,161.04657711357916,7,1066,172,critical_trial,run0,NA
2128672853,12,bread,5015407364669440,5889453543391232,1,38.01315561749642,1,2493,19,critical_trial,run0,NA
2128672853,13,bread,6116265301114880,6200665334349824,9,170.09703113223347,7,1487,180,critical_trial,run0,NA
2128672853,14,bread,6067738042695680,6244417541242880,5,99.62429422585637,7,1013,96,critical_trial,run0,NA
2128672853,15,bread,5815057545953280,6064567316643840,8,145.16886718577092,7,1198,143,critical_trial,run0,NA
2128672853,16,bread,6447242103750656,4576082256723968,8,139.26234236145822,7,1482,146,critical_trial,run0,NA
2128672853,17,bread,4883190625861632,4906501724438528,10,175.524927004685,7,1561,193,critical_trial,run0,NA
2128672853,18,bread,6510861294239744,6701024460931072,10,184.09780009549272,7,1537,182,critical_trial,run0,NA
2128672853,19,bread,5744874814963712,6707542673588224,3,67.11929677819934,7,2064,42,critical_trial,run0,NA
2128672853,2,bread,4925687158800384,6100771890266112,2,55.154328932550705,7,5617,40,critical_trial,run0,NA
2128672853,20,bread,4656048642195456,6303531139072000,3,67.06713054842886,1,2255,41,critical_trial,run0,NA
2128672853,21,bread,5038028525404160,5331899549483008,7,125.41929676090518,7,1630,138,critical_trial,run0,NA
2128672853,22,bread,4512177153114112,6334400226656256,1,35.11409973215888,1,1811,3,critical_trial,run0,NA
2128672853,23,bread,5590854536265728,5565220674076672,2,58.240879114244144,1,1362,26,critical_trial,run0,NA
2128672853,24,bread,5722698418225152,5917724209315840,1,37.44329045369811,7,1249,6,critical_trial,run0,NA
2128672853,25,bread,6438206822154240,4803814508986368,4,80.4114419718985,7,1082,73,critical_trial,run0,NA
2128672853,26,bread,6034519905796096,5126386987565056,8,135.71293232407882,1,897,153,attention_check,run0,NA
2128672853,27,bread,4712557224919040,5830382022819840,6,104.48444860360799,7,1424,101,critical_trial,run0,NA
2128672853,28,bread,5928295688306688,5051215396208640,3,70.45565981523414,7,1567,48,critical_trial,run0,NA
2128672853,29,bread,5085614447788032,4830263773233152,7,119.36917525056458,7,1998,122,critical_trial,run0,NA
2128672853,3,bread,6489874741854208,6239885008568320,9,171.0263137648707,7,1446,174,critical_trial,run0,NA
2128672853,30,bread,6323845130616832,5095247602253824,6,113.7453295744489,7,1695,108,critical_trial,run0,NA
2128672853,31,bread,5924994133524480,5259242002972672,10,192.27584351654787,7,1679,196,critical_trial,run0,NA
2128672853,32,bread,6334333772103680,5599318100672512,5,98.43271813782245,7,1589,89,critical_trial,run0,NA
2128672853,33,bread,5369757920395264,6623091268517888,6,105.11898020814318,7,1438,110,critical_trial,run0,NA
2128672853,34,bread,5299291230830592,5761119253692416,3,75.16648189186454,7,804,45,critical_trial,run0,NA
2128672853,35,bread,5094016758579200,6311392644694016,6,112.64102272262978,7,1128,114,critical_trial,run0,NA
2128672853,36,bread,5138400535379968,4597371323285504,5,99.64436762808022,7,1900,90,critical_trial,run0,NA
2128672853,37,bread,4706969170477056,6679387804008448,2,58.034472514187634,7,1028,39,critical_trial,run0,NA
2128672853,38,bread,5819741342007296,6311565882032128,4,85.84287972802403,1,1026,70,critical_trial,run0,NA
2128672853,39,bread,5387131901968384,4774223929147392,4,83.64807230295268,7,1219,76,critical_trial,run0,NA
2128672853,4,bread,6559041377533952,5572000900710400,6,101.43470806385751,7,1380,109,critical_trial,run0,NA
2128672853,40,bread,5114652717481984,4579761516969984,8,144.88616221019868,7,1142,141,critical_trial,run0,NA
2128672853,41,bread,5721906135171072,6584423447265280,6,102.59142264341595,7,915,111,critical_trial,run0,NA
2128672853,42,bread,5481995800936448,6382855632453632,1,49.040799340956916,7,951,13,critical_trial,run0,NA
2128672853,43,bread,6138211606724608,4685170688917504,3,68.15423684555495,1,1819,53,critical_trial,run0,NA
2128672853,44,bread,5164322542059520,4553901250445312,7,128.63125592172378,7,1183,133,critical_trial,run0,NA
2128672853,45,bread,6278667040718848,5380090357612544,8,138.6542462386205,7,841,142,critical_trial,run0,NA
2128672853,46,bread,4823807099404288,6706496714833920,3,75.39230729988306,7,1144,55,critical_trial,run0,NA
2128672853,47,bread,5430369438400512,4706202653032448,6,101.13357503816425,7,975,113,critical_trial,run0,NA
2128672853,48,bread,4936112269164544,4755338572070912,4,78.89233169326408,1,6236,67,critical_trial,run0,NA
2128672853,49,bread,5733702577422336,6224960148209664,7,124.90396310766124,7,915,125,critical_trial,run0,NA
2128672853,5,bread,6384812522733568,4922011958640640,9,166.715326230074,7,1337,162,critical_trial,run0,NA
2128672853,50,bread,5928295688306688,6511590029393920,2,59.00847396772772,7,1108,21,critical_trial,run0,NA
2128672853,51,bread,5933599503155200,5446657397227520,7,118.3427226321923,1,1140,129,attention_check,run0,NA
2128672853,52,bread,6462238451826688,4785026795307008,6,104.08650248711405,7,1209,119,critical_trial,run0,NA
2128672853,6,bread,4673896848556032,4988894737072128,1,43.18564576337837,7,1818,4,critical_trial,run0,NA
2128672853,7,bread,5890358321872896,4872495620423680,8,135.72398461583714,7,2417,152,critical_trial,run0,NA
2128672853,8,bread,6589787022557184,6384812522733568,8,133.09019498069722,7,1107,157,critical_trial,run0,NA
2128672853,9,bread,6669494766272512,5948753066328064,1,48.662100242385755,7,1655,2,critical_trial,run0,NA
2173933137,1,tree,5675218632704000,4600726577741824,9,103.24727599312246,4,20431,168,critical_trial,run0,NA
2173933137,10,tree,5164092761309184,5899403510415360,2,55.02726596879042,4,3830,32,critical_trial,run0,NA
2173933137,11,tree,6098342918488064,4703567510241280,6,80.77747210701756,4,2373,117,critical_trial,run0,NA
2173933137,12,tree,5113119821004800,4958919220789248,6,82.29216244576394,4,2824,108,critical_trial,run0,NA
2173933137,13,tree,4975705777504256,6110962455150592,9,103.73041983911952,1,2926,176,critical_trial,run0,NA
2173933137,14,tree,4781795235069952,6629514828316672,9,102.95630140987001,1,3957,178,critical_trial,run0,NA
2173933137,15,tree,5579984255057920,5039879870218240,3,58.52349955359813,1,2232,51,critical_trial,run0,NA
2173933137,16,tree,5130379159666688,4646269303652352,10,128.03515142334936,3,2381,198,critical_trial,run0,NA
2173933137,17,tree,6530589869998080,5584278081503232,6,79.84985911070852,3,2498,119,critical_trial,run0,NA
2173933137,18,tree,5104298172088320,6005399176085504,7,86.95401083331349,2,3454,122,critical_trial,run0,NA
2173933137,19,tree,6696130446360576,4748950617718784,6,81.49846624323675,3,2328,115,critical_trial,run0,NA
2173933137,2,tree,5410446918025216,6311665287036928,1,44.384682042344295,2,6104,18,critical_trial,run0,NA
2173933137,20,tree,6167007219154944,5766791022247936,10,142.0774436706967,4,2449,200,critical_trial,run0,NA
2173933137,21,tree,5047015186628608,6209153632567296,1,45.0111097397076,3,1893,9,critical_trial,run0,NA
2173933137,22,tree,6341537778630656,6585894687473664,9,112.50777750893491,4,3102,161,critical_trial,run0,NA
2173933137,23,tree,6663513084788736,4987385538412544,4,64,5,3822,61,critical_trial,run0,NA
2173933137,24,tree,5191090451775488,5540948224245760,4,67.17886572427373,4,3079,78,critical_trial,run0,NA
2173933137,25,tree,6038139007139840,5100154451394560,5,69.92138442565336,3,3836,83,critical_trial,run0,NA
2173933137,26,tree,4833264831299584,6299933638393856,4,67.47592163134935,7,4889,69,attention_check,run0,NA
2173933137,27,tree,5841177574113280,6350651141390336,2,52.61178575186362,5,8007,31,critical_trial,run0,NA
2173933137,28,tree,5161603961978880,6691046576619520,2,54.405882034941776,5,2717,28,critical_trial,run0,NA
2173933137,29,tree,6045379915153408,4753257341648896,7,89.47066558375433,3,2416,127,critical_trial,run0,NA
2173933137,3,tree,4733652242006016,6427475242385408,9,113.37107214805724,3,4315,174,critical_trial,run0,NA
2173933137,30,tree,5904019270664192,5241475400990720,2,55.97320787662612,2,6395,38,critical_trial,run0,NA
2173933137,31,tree,6203542975021056,5367574621585408,1,41.048751503547585,2,2200,13,critical_trial,run0,NA
2173933137,32,tree,4975705777504256,4891858939412480,6,82.87339742040264,5,7830,103,critical_trial,run0,NA
2173933137,33,tree,5155894339829760,5725838915928064,7,87.20665112249179,4,4032,135,critical_trial,run0,NA
2173933137,34,tree,6509219673014272,5009873450303488,2,50.48762224545735,3,2302,33,critical_trial,run0,NA
2173933137,35,tree,4942365473112064,4616725163147264,9,107.22872749408155,4,3733,177,critical_trial,run0,NA
2173933137,36,tree,6731009435369472,5290741007908864,7,86.97700845625813,3,4492,124,critical_trial,run0,NA
2173933137,37,tree,5706205446012928,5886855977369600,10,119.54078801814885,4,1999,190,critical_trial,run0,NA
2173933137,38,tree,5796616957067264,6715240580382720,6,81.70679286326198,4,2134,114,critical_trial,run0,NA
2173933137,39,tree,6153645844332544,5877076991148032,3,58.25804665451803,3,3503,45,critical_trial,run0,NA
2173933137,4,tree,5977442474786816,5726178365145088,10,137.00364958642524,2,2493,195,critical_trial,run0,NA
2173933137,40,tree,4883105863172096,6073022391779328,4,64.35060217278468,2,3874,79,critical_trial,run0,NA
2173933137,41,tree,5144799529140224,6285104324280320,8,95.1892851112981,3,2514,143,critical_trial,run0,NA
2173933137,42,tree,4592989026385920,5086907564294144,7,85.70880934886448,2,2486,139,critical_trial,run0,NA
2173933137,43,tree,5286518522380288,5859979330322432,9,104.04806581575652,2,2390,166,critical_trial,run0,NA
2173933137,44,tree,5914386784845824,4840306753142784,9,114.0701538527936,1,4242,175,critical_trial,run0,NA
2173933137,45,tree,6296935361150976,5890793690628096,2,54.817880294662984,1,1818,27,critical_trial,run0,NA
2173933137,46,tree,4730719286853632,5325080026415104,1,47.01063709417264,5,4717,7,critical_trial,run0,NA
2173933137,47,tree,5644084460912640,6532474475642880,9,108.90821823902914,3,6101,180,critical_trial,run0,NA
2173933137,48,tree,5484525100466176,6048833744142336,6,80.2122185206219,4,1918,106,critical_trial,run0,NA
2173933137,49,tree,4604872747909120,6580511281512448,4,68.6804193347711,2,4751,74,critical_trial,run0,NA
2173933137,5,tree,4559700781694976,6691873160691712,1,40.792156108742276,5,5014,4,critical_trial,run0,NA
2173933137,50,tree,4708881638883328,5367125659090944,10,117.51595636338071,4,2903,187,critical_trial,run0,NA
2173933137,51,tree,5997606327025664,5596979495174144,1,42.42640687119285,7,4221,11,attention_check,run0,NA
2173933137,52,tree,6165497533956096,5268265729261568,7,89.88882021697692,1,4838,128,critical_trial,run0,NA
2173933137,6,tree,5481275638939648,5089586533367808,5,72.11102550927978,1,4332,82,critical_trial,run0,NA
2173933137,7,tree,6343973360631808,6632018693586944,8,94.5568612000208,1,7156,160,critical_trial,run0,NA
2173933137,8,tree,5498678397632512,6098342918488064,4,67.11929677819934,4,4473,62,critical_trial,run0,NA
2173933137,9,tree,6487434462232576,6140366757560320,6,83.73768566183328,5,2952,120,critical_trial,run0,NA
2184772927,1,bread,6481629813932032,5812575105187840,5,93.7709976485267,4,102594,85,critical_trial,run0,NA
2184772927,10,bread,5138470362152960,6237249777696768,5,89.98888820293314,7,3069,92,critical_trial,run0,NA
2184772927,11,bread,6332315288469504,5593199454191616,10,206.90335908341362,6,5186,186,critical_trial,run0,NA
2184772927,12,bread,5701570400354304,6498196152909824,3,71.7007670809734,4,4835,44,critical_trial,run0,NA
2184772927,13,bread,4871156911833088,6133755125170176,9,152.45327152934436,4,4715,161,critical_trial,run0,NA
2184772927,14,bread,5383724180963328,4838273455226880,2,62.625873247404705,3,4693,30,critical_trial,run0,NA
2184772927,15,bread,6510861294239744,6701024460931072,10,184.09780009549272,7,3540,182,critical_trial,run0,NA
2184772927,16,bread,6542276559896576,5059619024011264,3,67.468511173732,6,7575,60,critical_trial,run0,NA
2184772927,17,bread,6429096269578240,5957502250254336,7,122.8087944733601,6,2473,132,critical_trial,run0,NA
2184772927,18,bread,5300083971063808,4828986288898048,4,76.84399781375251,7,2236,65,critical_trial,run0,NA
2184772927,19,bread,5945648610279424,4655865820872704,6,114.54693361238441,7,2995,118,critical_trial,run0,NA
2184772927,2,bread,6489874741854208,6239885008568320,9,171.0263137648707,7,8969,174,critical_trial,run0,NA
2184772927,20,bread,5347838085038080,5202895408463872,2,62.48199740725323,7,8204,34,critical_trial,run0,NA
2184772927,21,bread,5288154615513088,5203904016941056,4,86.33075929238663,7,2330,74,critical_trial,run0,NA
2184772927,22,bread,6360677662851072,5344090143064064,10,220.95248357961492,7,3056,200,critical_trial,run0,NA
2184772927,23,bread,6326609076289536,6557657190105088,4,76.6550715869472,7,3362,63,critical_trial,run0,NA
2184772927,24,bread,4993213125361664,5672293961302016,2,65.62011886609167,6,6055,27,critical_trial,run0,NA
2184772927,25,bread,5563572501348352,4862302434099200,6,109.65856099730654,7,1556,105,critical_trial,run0,NA
2184772927,26,bread,6407123434995712,5866014464016384,2,56.08029957123981,1,5131,35,attention_check,run0,NA
2184772927,27,bread,6334333772103680,5599318100672512,5,98.43271813782245,4,3551,89,critical_trial,run0,NA
2184772927,28,bread,5507829509128192,5139027634159616,10,178.89941307897016,7,1671,190,critical_trial,run0,NA
2184772927,29,bread,5647064799117312,5171820275695616,7,116.45600027478189,7,1692,128,critical_trial,run0,NA
2184772927,3,bread,6625968498147328,6137759578193920,3,68.6804193347711,7,4618,59,critical_trial,run0,NA
2184772927,30,bread,5138400535379968,4597371323285504,5,99.64436762808022,5,6003,90,critical_trial,run0,NA
2184772927,31,bread,4705301078999040,5087658025943040,7,133.00375934536586,7,1676,126,critical_trial,run0,NA
2184772927,32,bread,6433422761263104,5383595248058368,10,202.20039564748632,4,5445,191,critical_trial,run0,NA
2184772927,33,bread,6665264559030272,6139959394172928,6,104.80935072788114,7,7430,103,critical_trial,run0,NA
2184772927,34,bread,5556117507670016,4903159707205632,2,60.207972893961475,2,6293,23,critical_trial,run0,NA
2184772927,35,bread,6481629813932032,6358669409124352,10,188.67962264113208,7,4708,192,critical_trial,run0,NA
2184772927,36,bread,5908474112245760,5420607380389888,10,182.0109886792553,7,4966,184,critical_trial,run0,NA
2184772927,37,bread,5522072862195712,6151037725442048,10,178.71765441612084,6,2687,194,critical_trial,run0,NA
2184772927,38,bread,5055594903896064,6129118624088064,9,157.87653403846943,7,1778,175,critical_trial,run0,NA
2184772927,39,bread,5864737952759808,6691086019854336,7,123.14625451064275,3,2032,131,critical_trial,run0,NA
2184772927,4,bread,4808817424465920,5883436562644992,9,159.15401345866212,7,10398,171,critical_trial,run0,NA
2184772927,40,bread,6351042251849728,5514579922649088,4,84.34453153583817,4,4793,79,critical_trial,run0,NA
2184772927,41,bread,5085614447788032,4830263773233152,7,119.36917525056458,6,2585,122,critical_trial,run0,NA
2184772927,42,bread,6193506525642752,6246894344863744,9,165.73774464496614,7,2806,165,critical_trial,run0,NA
2184772927,43,bread,5069642584293376,5266744761384960,10,172.58621034138272,7,2088,183,critical_trial,run0,NA
2184772927,44,bread,6067738042695680,6244417541242880,5,99.62429422585637,7,1688,96,critical_trial,run0,NA
2184772927,45,bread,4623583877791744,4601234612813824,5,99.62429422585637,6,2252,98,critical_trial,run0,NA
2184772927,46,bread,6688507328200704,5998211846111232,5,88.23264701911646,7,3395,83,critical_trial,run0,NA
2184772927,47,bread,4705301078999040,4803424270942208,4,78.39005038906404,2,3313,69,critical_trial,run0,NA
2184772927,48,bread,4517415574568960,5171456952500224,1,52.20153254455275,1,4523,12,critical_trial,run0,NA
2184772927,49,bread,4883190625861632,4906501724438528,10,175.524927004685,6,2856,193,critical_trial,run0,NA
2184772927,5,bread,6087056570712064,5165292915261440,4,78.05767098754612,7,10861,64,critical_trial,run0,NA
2184772927,50,bread,5310246903873536,6598053354012672,3,67.4166151627327,7,2973,51,critical_trial,run0,NA
2184772927,51,bread,5481995800936448,6382855632453632,1,49.040799340956916,1,4110,13,attention_check,run0,NA
2184772927,52,bread,6254451545341952,5357274245627904,2,65.94694837519019,7,1772,37,critical_trial,run0,NA
2184772927,6,bread,5590854536265728,5565220674076672,2,58.240879114244144,3,8476,26,critical_trial,run0,NA
2184772927,7,bread,6278667040718848,5380090357612544,8,138.6542462386205,7,15720,142,critical_trial,run0,NA
2184772927,8,bread,6445791277219840,6321989268537344,1,52.43090691567332,4,4803,10,critical_trial,run0,NA
2184772927,9,bread,5369757920395264,6623091268517888,6,105.11898020814318,7,17846,110,critical_trial,run0,NA
2226345295,1,bread,6213338503577600,6747917865975808,5,88.48163651289458,3,34501,94,critical_trial,run0,NA
2226345295,10,bread,5430369438400512,4706202653032448,6,101.13357503816425,6,10486,113,critical_trial,run0,NA
2226345295,11,bread,6067738042695680,6244417541242880,5,99.62429422585637,7,2621,96,critical_trial,run0,NA
2226345295,12,bread,6193506525642752,6246894344863744,9,165.73774464496614,6,4086,165,critical_trial,run0,NA
2226345295,13,bread,5846211812655104,5165932383043584,10,202.4080037943164,4,3862,195,critical_trial,run0,NA
2226345295,14,bread,6447242103750656,4576082256723968,8,139.26234236145822,7,2768,146,critical_trial,run0,NA
2226345295,15,bread,4674210850930688,6019556508172288,5,92.02173656261873,6,2951,84,critical_trial,run0,NA
2226345295,16,bread,5827846347948032,5245897371811840,8,142.08800090085018,7,3594,159,critical_trial,run0,NA
2226345295,17,bread,6750208023068672,4838273455226880,9,153.88307249337075,5,3497,170,critical_trial,run0,NA
2226345295,18,bread,6295430293880832,5216256258998272,1,51.85556864985669,7,2125,15,critical_trial,run0,NA
2226345295,19,bread,6481629813932032,5812575105187840,5,93.7709976485267,4,4275,85,critical_trial,run0,NA
2226345295,2,bread,4997464316706816,6420443571421184,1,36.71511950137164,4,7871,18,critical_trial,run0,NA
2226345295,20,bread,5094016758579200,6311392644694016,6,112.64102272262978,7,1697,114,critical_trial,run0,NA
2226345295,21,bread,4960131072655360,4809963576754176,2,66.48308055437865,6,2484,33,critical_trial,run0,NA
2226345295,22,bread,4603484299067392,6456419710664704,3,72.49827584156743,4,2760,49,critical_trial,run0,NA
2226345295,23,bread,6496685050036224,5725384249180160,9,161.04657711357916,6,2315,172,critical_trial,run0,NA
2226345295,24,bread,5530798088257536,6476551229014016,5,96.54014708917737,5,5069,93,critical_trial,run0,NA
2226345295,25,bread,5945648610279424,4655865820872704,6,114.54693361238441,7,5099,118,critical_trial,run0,NA
2226345295,26,bread,6116265301114880,6200665334349824,9,170.09703113223347,1,2331,180,attention_check,run0,NA
2226345295,27,bread,5171070506106880,4690437874909184,7,120.07081243999309,4,4221,123,critical_trial,run0,NA
2226345295,28,bread,5547682443558912,6665163765710848,4,77.52418977325722,3,4496,66,critical_trial,run0,NA
2226345295,29,bread,6489874741854208,6239885008568320,9,171.0263137648707,4,3007,174,critical_trial,run0,NA
2226345295,3,bread,6744448807469056,5739182150385664,2,65.03076195155643,3,10036,38,critical_trial,run0,NA
2226345295,30,bread,5744874814963712,6707542673588224,3,67.11929677819934,5,2925,42,critical_trial,run0,NA
2226345295,31,bread,4705301078999040,5087658025943040,7,133.00375934536586,5,6339,126,critical_trial,run0,NA
2226345295,32,bread,6589787022557184,6384812522733568,8,133.09019498069722,7,2030,157,critical_trial,run0,NA
2226345295,33,bread,5259239473807360,6526906755186688,1,41.23105625617661,6,11802,5,critical_trial,run0,NA
2226345295,34,bread,5205133065453568,5236057568182272,6,110.2905254316979,6,4815,116,critical_trial,run0,NA
2226345295,35,bread,6618717385392128,6415962309918720,9,151.48927354766738,4,5624,166,critical_trial,run0,NA
2226345295,36,bread,5744874814963712,5535194524155904,3,67.1863081289633,7,1839,54,critical_trial,run0,NA
2226345295,37,bread,5114652717481984,4579761516969984,8,144.88616221019868,6,3351,141,critical_trial,run0,NA
2226345295,38,bread,5623729692344320,6536574558797824,1,52.69724850502159,4,5472,1,critical_trial,run0,NA
2226345295,39,bread,4871156911833088,6133755125170176,9,152.45327152934436,3,3875,161,critical_trial,run0,NA
2226345295,4,bread,5303571232849920,6333377877639168,8,149.40548852033515,7,3946,158,critical_trial,run0,NA
2226345295,40,bread,6139959394172928,5666224128131072,6,106.10372283760829,4,3508,117,critical_trial,run0,NA
2226345295,41,bread,5097250768289792,4534849647935488,8,138.2316895650198,7,2916,160,critical_trial,run0,NA
2226345295,42,bread,5760162193211392,5636664804245504,5,90.82400563727631,7,1537,88,critical_trial,run0,NA
2226345295,43,bread,5924994133524480,5259242002972672,10,192.27584351654787,5,2712,196,critical_trial,run0,NA
2226345295,44,bread,5829237367898112,5978086149455872,2,56.32051136131489,5,2813,29,critical_trial,run0,NA
2226345295,45,bread,4712557224919040,5830382022819840,6,104.48444860360799,6,2834,101,critical_trial,run0,NA
2226345295,46,bread,6402266380632064,6114739950190592,6,109.29318368498559,6,3308,104,critical_trial,run0,NA
2226345295,47,bread,6747649485045760,6749654328803328,2,61.61168720299745,5,4229,31,critical_trial,run0,NA
2226345295,48,bread,5556117507670016,4553789262528512,10,187.18172987767795,5,3071,188,critical_trial,run0,NA
2226345295,49,bread,5383724180963328,4838273455226880,2,62.625873247404705,4,5084,30,critical_trial,run0,NA
2226345295,5,bread,5464578739666944,5407435604885504,8,142.63590010933433,4,5653,144,critical_trial,run0,NA
2226345295,50,bread,4978898532040704,5972817654841344,9,154.46682491719702,4,2976,178,critical_trial,run0,NA
2226345295,51,bread,5069642584293376,5266744761384960,10,172.58621034138272,1,2222,183,attention_check,run0,NA
2226345295,52,bread,6290239205146624,4558417475665920,8,134.97407158413796,5,3731,148,critical_trial,run0,NA
2226345295,6,bread,4937218844000256,6314443111661568,2,55.17245689653489,3,5048,36,critical_trial,run0,NA
2226345295,7,bread,4823807099404288,6706496714833920,3,75.39230729988306,4,6680,55,critical_trial,run0,NA
2226345295,8,bread,5590854536265728,5565220674076672,2,58.240879114244144,2,7642,26,critical_trial,run0,NA
2226345295,9,bread,5556117507670016,4903159707205632,2,60.207972893961475,3,19139,23,critical_trial,run0,NA
2278558149,1,tree,5909216902512640,6176961757970432,6,81.32035415564789,7,6877,104,critical_trial,run0,NA
2278558149,10,tree,5333845102559232,6475577814941696,6,79.05694150420949,7,925,113,critical_trial,run0,NA
2278558149,11,tree,5112301692649472,6337442959327232,5,74.96665925596525,7,970,100,critical_trial,run0,NA
2278558149,12,tree,6696130446360576,4748950617718784,6,81.49846624323675,7,1615,115,critical_trial,run0,NA
2278558149,13,tree,6425465445154816,6747812828020736,6,76.11832893594026,6,4798,109,critical_trial,run0,NA
2278558149,14,tree,6043760192389120,5715981408141312,6,77.89736837660179,4,3115,102,critical_trial,run0,NA
2278558149,15,tree,6153645844332544,5877076991148032,3,58.25804665451803,7,1196,45,critical_trial,run0,NA
2278558149,16,tree,4964647931215872,5411631251062784,10,135.72398461583714,7,1248,192,critical_trial,run0,NA
2278558149,17,tree,5512375149002752,6085611746230272,3,59.21148537234985,3,2070,59,critical_trial,run0,NA
2278558149,18,tree,6601115938324480,5103015675559936,8,100.42410069301094,7,1144,147,critical_trial,run0,NA
2278558149,19,tree,4948287830360064,4573178275823616,10,139.90353819685905,7,1240,196,critical_trial,run0,NA
2278558149,2,tree,5393230117994496,6606710670098432,8,97.65244492586962,7,7131,144,critical_trial,run0,NA
2278558149,20,tree,4708881638883328,5367125659090944,10,117.51595636338071,7,922,187,critical_trial,run0,NA
2278558149,21,tree,6582563558653952,5044755949944832,8,102.39628899525607,7,839,157,critical_trial,run0,NA
2278558149,22,tree,6328795495661568,5057710124957696,4,63.63961030678928,7,654,63,critical_trial,run0,NA
2278558149,23,tree,5819702553083904,6729583841771520,3,60.876925020897694,7,1173,58,critical_trial,run0,NA
2278558149,24,tree,5656537441763328,5847868126527488,6,82.28000972289685,7,877,111,critical_trial,run0,NA
2278558149,25,tree,5164092761309184,5899403510415360,2,55.02726596879042,3,1394,32,critical_trial,run0,NA
2278558149,26,tree,4661648457465856,5022978049835008,1,36.40054944640259,1,3344,20,attention_check,run0,NA
2278558149,27,tree,5261627857305600,6658538187259904,7,87.28115489611719,7,1913,123,critical_trial,run0,NA
2278558149,28,tree,6307926773858304,5789507221716992,10,143.7810835958611,7,1406,191,critical_trial,run0,NA
2278558149,29,tree,6441286313705472,4800797361569792,1,44,5,2641,8,critical_trial,run0,NA
2278558149,3,tree,5661171501760512,5966033485561856,2,50.695167422546305,7,2950,26,critical_trial,run0,NA
2278558149,30,tree,6172709857787904,5586847570853888,4,63.56886030125127,7,1701,68,critical_trial,run0,NA
2278558149,31,tree,6296935361150976,5890793690628096,2,54.817880294662984,7,1264,27,critical_trial,run0,NA
2278558149,32,tree,6484200028897280,6740925642440704,1,46.09772228646444,3,1792,10,critical_trial,run0,NA
2278558149,33,tree,4746912655736832,6346891920932864,10,141.088624630053,7,929,183,critical_trial,run0,NA
2278558149,34,tree,6165497533956096,5268265729261568,7,89.88882021697692,7,1259,128,critical_trial,run0,NA
2278558149,35,tree,6435272415772672,6140366757560320,6,81.8413098624405,3,1639,110,critical_trial,run0,NA
2278558149,36,tree,5546023545995264,6055544374689792,9,106.7941945987702,7,767,162,critical_trial,run0,NA
2278558149,37,tree,5579564220678144,5499033231556608,7,90.62008607367353,7,1806,137,critical_trial,run0,NA
2278558149,38,tree,5926676749877248,4681674581344256,3,61.5223536610881,3,1828,50,critical_trial,run0,NA
2278558149,39,tree,5717789341908992,6161991028703232,1,46.75467891024384,7,967,15,critical_trial,run0,NA
2278558149,4,tree,4659614236803072,6393343753846784,1,48.54894437575342,2,5296,2,critical_trial,run0,NA
2278558149,40,tree,5921583124185088,4626048664731648,8,98.73196037757987,7,780,141,critical_trial,run0,NA
2278558149,41,tree,5465383655964672,5708691795869696,2,55.97320787662612,7,1027,36,critical_trial,run0,NA
2278558149,42,tree,5168918907846656,5845843049447424,5,73.7563556583431,7,865,90,critical_trial,run0,NA
2278558149,43,tree,5577263649128448,5844517297061888,7,89.40357934669059,7,810,121,critical_trial,run0,NA
2278558149,44,tree,4559700781694976,6691873160691712,1,40.792156108742276,4,2421,4,critical_trial,run0,NA
2278558149,45,tree,5776773335744512,5920154254835712,7,85.63293758829018,2,1489,133,critical_trial,run0,NA
2278558149,46,tree,5114250873798656,5060717059244032,2,56.22277118748239,3,3290,21,critical_trial,run0,NA
2278558149,47,tree,6264404926529536,4609853571989504,3,57.28001396647874,7,2239,47,critical_trial,run0,NA
2278558149,48,tree,4507637007777792,5506359007117312,7,88.60022573334675,3,3864,129,critical_trial,run0,NA
2278558149,49,tree,4592989026385920,5086907564294144,7,85.70880934886448,7,1453,139,critical_trial,run0,NA
2278558149,5,tree,5183192241799168,4753236034584576,7,92.13576938409967,3,3053,140,critical_trial,run0,NA
2278558149,50,tree,5841177574113280,6350651141390336,2,52.61178575186362,7,758,31,critical_trial,run0,NA
2278558149,51,tree,6047872673906688,5483012739301376,5,70.61161377563892,1,2822,99,attention_check,run0,NA
2278558149,52,tree,6270145355841536,6556114139217920,9,113.35784048754634,3,1845,164,critical_trial,run0,NA
2278558149,6,tree,5997606327025664,5596979495174144,1,42.42640687119285,2,1629,11,critical_trial,run0,NA
2278558149,7,tree,5484525100466176,6048833744142336,6,80.2122185206219,2,3402,106,critical_trial,run0,NA
2278558149,8,tree,5161603961978880,6691046576619520,2,54.405882034941776,4,3654,28,critical_trial,run0,NA
2278558149,9,tree,4558391374512128,6704110596259840,10,125.80143083447024,7,2283,185,critical_trial,run0,NA
2336355778,1,tree,5393230117994496,6606710670098432,8,97.65244492586962,6,12095,144,critical_trial,run0,NA
2336355778,10,tree,6131339407392768,4915355380088832,5,71,5,1795,92,critical_trial,run0,NA
2336355778,11,tree,5796616957067264,5103641830621184,8,96.5090669315583,4,3856,156,critical_trial,run0,NA
2336355778,12,tree,5502021924814848,5291858756370432,1,48.33218389437829,5,2196,1,critical_trial,run0,NA
2336355778,13,tree,6433464687525888,5079657730801664,10,121.1486689980538,4,1919,184,critical_trial,run0,NA
2336355778,14,tree,4808756976156672,5394944229376000,9,112.0714058089752,7,2167,169,critical_trial,run0,NA
2336355778,15,tree,5656537441763328,6617903266791424,3,61.84658438426491,6,1805,54,critical_trial,run0,NA
2336355778,16,tree,5144799529140224,6285104324280320,8,95.1892851112981,7,2150,143,critical_trial,run0,NA
2336355778,17,tree,6618593166884864,5837754971717632,7,87.05170877128145,4,1717,131,critical_trial,run0,NA
2336355778,18,tree,5188495888875520,5241475400990720,5,70.71067811865476,5,1722,89,critical_trial,run0,NA
2336355778,19,tree,5512375149002752,6085611746230272,3,59.21148537234985,3,1604,59,critical_trial,run0,NA
2336355778,2,tree,6627380078575616,6324818322391040,3,61.29437168288782,5,4441,43,critical_trial,run0,NA
2336355778,20,tree,5261627857305600,6658538187259904,7,87.28115489611719,5,2119,123,critical_trial,run0,NA
2336355778,21,tree,5104298172088320,6005399176085504,7,86.95401083331349,6,3860,122,critical_trial,run0,NA
2336355778,22,tree,4604872747909120,6580511281512448,4,68.6804193347711,6,3853,74,critical_trial,run0,NA
2336355778,23,tree,6271033923338240,5775386208108544,5,75.28612089887484,7,2387,95,critical_trial,run0,NA
2336355778,24,tree,5595075864166400,6663567124201472,9,113.7453295744489,7,3761,172,critical_trial,run0,NA
2336355778,25,tree,5591976898461696,4846112856866816,8,97.24710792614863,6,1473,142,critical_trial,run0,NA
2336355778,26,tree,6381970412011520,4752045758218240,4,66.70832032063167,1,1835,77,attention_check,run0,NA
2336355778,27,tree,6663513084788736,4987385538412544,4,64,3,1998,61,critical_trial,run0,NA
2336355778,28,tree,4661648457465856,5022978049835008,1,36.40054944640259,4,2624,20,critical_trial,run0,NA
2336355778,29,tree,5890820802609152,5195205030445056,2,51.97114584074513,3,2166,35,critical_trial,run0,NA
2336355778,3,tree,5047015186628608,6209153632567296,1,45.0111097397076,6,1995,9,critical_trial,run0,NA
2336355778,30,tree,5114250873798656,5060717059244032,2,56.22277118748239,3,1741,21,critical_trial,run0,NA
2336355778,31,tree,5904019270664192,5241475400990720,2,55.97320787662612,5,2082,38,critical_trial,run0,NA
2336355778,32,tree,6047872673906688,5483012739301376,5,70.61161377563892,4,2881,99,critical_trial,run0,NA
2336355778,33,tree,6110006556491776,6117959091093504,8,100.17983829094555,5,1580,150,critical_trial,run0,NA
2336355778,34,tree,6302376669478912,6585894687473664,3,58.249463516842795,5,2146,44,critical_trial,run0,NA
2336355778,35,tree,5164092761309184,5899403510415360,2,55.02726596879042,3,3746,32,critical_trial,run0,NA
2336355778,36,tree,4558391374512128,6704110596259840,10,125.80143083447024,4,2565,185,critical_trial,run0,NA
2336355778,37,tree,4833264831299584,6299933638393856,4,67.47592163134935,3,2117,69,critical_trial,run0,NA
2336355778,38,tree,5039160815517696,5273307853094912,2,53.009433122794285,3,2242,37,critical_trial,run0,NA
2336355778,39,tree,6270145355841536,6556114139217920,9,113.35784048754634,4,2205,164,critical_trial,run0,NA
2336355778,4,tree,6296935361150976,5890793690628096,2,54.817880294662984,7,1236,27,critical_trial,run0,NA
2336355778,40,tree,4962187703484416,5432947106643968,5,69.85699678629192,5,8810,86,critical_trial,run0,NA
2336355778,41,tree,6372027596275712,6067248483532800,4,63.56099432828282,6,3078,66,critical_trial,run0,NA
2336355778,42,tree,5498678397632512,6098342918488064,4,67.11929677819934,2,2478,62,critical_trial,run0,NA
2336355778,43,tree,6098342918488064,4703567510241280,6,80.77747210701756,3,2596,117,critical_trial,run0,NA
2336355778,44,tree,4746912655736832,6346891920932864,10,141.088624630053,7,2732,183,critical_trial,run0,NA
2336355778,45,tree,4592989026385920,5001874006605824,8,93.40770846134703,5,2930,155,critical_trial,run0,NA
2336355778,46,tree,4975705777504256,4891858939412480,6,82.87339742040264,3,2471,103,critical_trial,run0,NA
2336355778,47,tree,4730719286853632,5325080026415104,1,47.01063709417264,2,3153,7,critical_trial,run0,NA
2336355778,48,tree,6571670984720384,5963324430745600,5,73.10950690573696,4,2033,94,critical_trial,run0,NA
2336355778,49,tree,4929169806852096,4841224265531392,6,76,6,2316,101,critical_trial,run0,NA
2336355778,5,tree,5796616957067264,6715240580382720,6,81.70679286326198,3,1411,114,critical_trial,run0,NA
2336355778,50,tree,5183785098280960,6704008519483392,1,42.44997055358225,5,2155,12,critical_trial,run0,NA
2336355778,51,tree,5427139807543296,5782657822621696,2,54.08326913195984,1,1590,40,attention_check,run0,NA
2336355778,52,tree,6435272415772672,6140366757560320,6,81.8413098624405,3,2664,110,critical_trial,run0,NA
2336355778,6,tree,6338419292635136,5895470259896320,7,84.71717653463199,6,2373,132,critical_trial,run0,NA
2336355778,7,tree,4656344177049600,5687001888063488,10,133.18408313308313,4,1692,197,critical_trial,run0,NA
2336355778,8,tree,5902174435409920,5574339447488512,10,132,6,1860,186,critical_trial,run0,NA
2336355778,9,tree,5777096410398720,6123923475267584,7,87.28115489611719,5,1677,125,critical_trial,run0,NA
2413117582,1,bread,5383724180963328,4838273455226880,2,62.625873247404705,7,5587,30,critical_trial,run0,NA
2413117582,10,bread,5303571232849920,6333377877639168,8,149.40548852033515,7,1841,158,critical_trial,run0,NA
2413117582,11,bread,5094016758579200,6311392644694016,6,112.64102272262978,7,986,114,critical_trial,run0,NA
2413117582,12,bread,4561961628991488,5215576467177472,7,127.75758294520134,4,1954,139,critical_trial,run0,NA
2413117582,13,bread,6750208023068672,4838273455226880,9,153.88307249337075,7,2567,170,critical_trial,run0,NA
2413117582,14,bread,5386147704340480,6462238451826688,7,129.76902558006668,7,978,140,critical_trial,run0,NA
2413117582,15,bread,5815057545953280,6064567316643840,8,145.16886718577092,7,1065,143,critical_trial,run0,NA
2413117582,16,bread,5837141898690560,6467393117224960,5,99.48869282486326,7,995,95,critical_trial,run0,NA
2413117582,17,bread,5530798088257536,6112946063147008,4,85.84287972802403,7,1112,75,critical_trial,run0,NA
2413117582,18,bread,5030435874668544,5345981434429440,3,70.40596565632774,7,1699,57,critical_trial,run0,NA
2413117582,19,bread,5945648610279424,4655865820872704,6,114.54693361238441,7,1041,118,critical_trial,run0,NA
2413117582,2,bread,5369757920395264,6623091268517888,6,105.11898020814318,7,1876,110,critical_trial,run0,NA
2413117582,20,bread,6017845701902336,6215611497578496,2,56.568542494923804,4,3204,25,critical_trial,run0,NA
2413117582,21,bread,5856222525784064,5480653875314688,7,121.00413216084813,7,1482,134,critical_trial,run0,NA
2413117582,22,bread,4674210850930688,6019556508172288,5,92.02173656261873,7,1041,84,critical_trial,run0,NA
2413117582,23,bread,6509840027353088,5248072961490944,8,136.09188072769072,7,1051,155,critical_trial,run0,NA
2413117582,24,bread,6496685050036224,5725384249180160,9,161.04657711357916,6,2030,172,critical_trial,run0,NA
2413117582,25,bread,6138211606724608,6526906755186688,1,42.941821107167776,3,1942,8,critical_trial,run0,NA
2413117582,26,bread,6278667040718848,5380090357612544,8,138.6542462386205,1,1665,142,attention_check,run0,NA
2413117582,27,bread,5106353162944512,5613401130663936,8,137.78606605894515,7,1398,154,critical_trial,run0,NA
2413117582,28,bread,5114652717481984,4579761516969984,8,144.88616221019868,7,1771,141,critical_trial,run0,NA
2413117582,29,bread,4673896848556032,4988894737072128,1,43.18564576337837,4,1673,4,critical_trial,run0,NA
2413117582,3,bread,5992469994930176,5655140797251584,10,183.3930205869351,7,2679,199,critical_trial,run0,NA
2413117582,30,bread,6478436367335424,5114910465851392,9,163.24827717314508,7,951,179,critical_trial,run0,NA
2413117582,31,bread,6481629813932032,6358669409124352,10,188.67962264113208,6,2108,192,critical_trial,run0,NA
2413117582,32,bread,6688507328200704,5998211846111232,5,88.23264701911646,7,868,83,critical_trial,run0,NA
2413117582,33,bread,5827846347948032,5245897371811840,8,142.08800090085018,7,1137,159,critical_trial,run0,NA
2413117582,34,bread,5507829509128192,5139027634159616,10,178.89941307897016,7,906,190,critical_trial,run0,NA
2413117582,35,bread,5132349257809920,6234092729270272,10,173.4156855650607,7,1130,185,critical_trial,run0,NA
2413117582,36,bread,6360677662851072,5344090143064064,10,220.95248357961492,7,1007,200,critical_trial,run0,NA
2413117582,37,bread,6351042251849728,5514579922649088,4,84.34453153583817,7,916,79,critical_trial,run0,NA
2413117582,38,bread,6334333772103680,5599318100672512,5,98.43271813782245,6,1564,89,critical_trial,run0,NA
2413117582,39,bread,6378928467869696,5636664804245504,6,111.80339887498948,7,955,112,critical_trial,run0,NA
2413117582,4,bread,6589787022557184,6384812522733568,8,133.09019498069722,7,1229,157,critical_trial,run0,NA
2413117582,40,bread,5018645451243520,6746778944667648,6,108.04628637764465,7,937,102,critical_trial,run0,NA
2413117582,41,bread,4925687158800384,6100771890266112,2,55.154328932550705,5,2107,40,critical_trial,run0,NA
2413117582,42,bread,4512177153114112,6334400226656256,1,35.11409973215888,2,2638,3,critical_trial,run0,NA
2413117582,43,bread,5556117507670016,4553789262528512,10,187.18172987767795,7,1501,188,critical_trial,run0,NA
2413117582,44,bread,4553981596532736,5760679489306624,5,96.13532129243653,7,1280,99,critical_trial,run0,NA
2413117582,45,bread,6703616133955584,6112946063147008,1,34.785054261852174,3,2467,16,critical_trial,run0,NA
2413117582,46,bread,4806635111317504,4685170688917504,1,48.82622246293481,7,1183,9,critical_trial,run0,NA
2413117582,47,bread,5590854536265728,5565220674076672,2,58.240879114244144,1,2710,26,critical_trial,run0,NA
2413117582,48,bread,5015899692072960,5945098854465536,2,56.515484603779164,7,1739,28,critical_trial,run0,NA
2413117582,49,bread,5464578739666944,5407435604885504,8,142.63590010933433,6,2009,144,critical_trial,run0,NA
2413117582,5,bread,6747649485045760,6749654328803328,2,61.61168720299745,4,1765,31,critical_trial,run0,NA
2413117582,50,bread,4945893591613440,5846668555583488,10,179.0111728356641,7,1279,187,critical_trial,run0,NA
2413117582,51,bread,5300083971063808,4828986288898048,4,76.84399781375251,1,1537,65,attention_check,run0,NA
2413117582,52,bread,6741019460632576,6720390380388352,8,135.72398461583714,3,1775,151,critical_trial,run0,NA
2413117582,6,bread,6131525416386560,6232117459550208,7,132.9661611087573,5,2850,127,critical_trial,run0,NA
2413117582,7,bread,6618717385392128,6415962309918720,9,151.48927354766738,6,1826,166,critical_trial,run0,NA
2413117582,8,bread,6384812522733568,4922011958640640,9,166.715326230074,7,1155,162,critical_trial,run0,NA
2413117582,9,bread,6254451545341952,5357274245627904,2,65.94694837519019,7,1081,37,critical_trial,run0,NA
2535235728,1,tree,5039160815517696,5273307853094912,2,53.009433122794285,NA,NA,37,critical_trial,run0,NA
2535235728,10,tree,5656537441763328,5847868126527488,6,82.28000972289685,7,1191,111,critical_trial,run0,NA
2535235728,11,tree,5777096410398720,6123923475267584,7,87.28115489611719,3,1969,125,critical_trial,run0,NA
2535235728,12,tree,5144799529140224,6285104324280320,8,95.1892851112981,7,1680,143,critical_trial,run0,NA
2535235728,13,tree,6171554683551744,5525406348214272,5,68.94200461257273,7,1868,84,critical_trial,run0,NA
2535235728,14,tree,5130195000360960,4640703244140544,7,92.65527507918802,2,2053,136,critical_trial,run0,NA
2535235728,15,tree,4993606987284480,6215830910009344,2,54.037024344425184,7,1833,25,critical_trial,run0,NA
2535235728,16,tree,5009873450303488,6279764618772480,4,64.32728814430156,7,2271,65,critical_trial,run0,NA
2535235728,17,tree,6343973360631808,6632018693586944,8,94.5568612000208,7,1012,160,critical_trial,run0,NA
2535235728,18,tree,6530589869998080,5584278081503232,6,79.84985911070852,3,1082,119,critical_trial,run0,NA
2535235728,19,tree,6165497533956096,5268265729261568,7,89.88882021697692,7,1623,128,critical_trial,run0,NA
2535235728,2,tree,4972097820426240,6424964968218624,8,96.56603957913983,6,16172,153,critical_trial,run0,NA
2535235728,20,tree,6072476129820672,5584651693326336,7,89.44271909999159,7,2387,126,critical_trial,run0,NA
2535235728,21,tree,4656344177049600,5687001888063488,10,133.18408313308313,2,1957,197,critical_trial,run0,NA
2535235728,22,tree,6603145708830720,4681674581344256,8,93.92017887546851,7,2226,152,critical_trial,run0,NA
2535235728,23,tree,5118934401417216,5748403667468288,3,61.5223536610881,2,2056,42,critical_trial,run0,NA
2535235728,24,tree,4834441937551360,5745391112814592,9,116.27553482998907,7,1117,170,critical_trial,run0,NA
2535235728,25,tree,4646404377018368,6681960573304832,5,72.03471385380801,1,2197,96,critical_trial,run0,NA
2535235728,26,tree,5546023545995264,6055544374689792,9,106.7941945987702,1,1428,162,attention_check,run0,NA
2535235728,27,tree,4942365473112064,4616725163147264,9,107.22872749408155,2,3613,177,critical_trial,run0,NA
2535235728,28,tree,6745743723331584,6094151017824256,6,75.96051605933177,6,2517,112,critical_trial,run0,NA
2535235728,29,tree,5465383655964672,5708691795869696,2,55.97320787662612,7,1217,36,critical_trial,run0,NA
2535235728,3,tree,5921583124185088,4626048664731648,8,98.73196037757987,6,3585,141,critical_trial,run0,NA
2535235728,30,tree,5914386784845824,4840306753142784,9,114.0701538527936,7,1456,175,critical_trial,run0,NA
2535235728,31,tree,6610673314299904,5623310995947520,8,95.524865872714,2,1513,158,critical_trial,run0,NA
2535235728,32,tree,5481275638939648,5089586533367808,5,72.11102550927978,7,1265,82,critical_trial,run0,NA
2535235728,33,tree,4707338638327808,6739835475722240,8,93.40770846134703,7,1245,148,critical_trial,run0,NA
2535235728,34,tree,4559700781694976,6691873160691712,1,40.792156108742276,7,1359,4,critical_trial,run0,NA
2535235728,35,tree,5378216153841664,4825033144795136,2,55.60575509783138,4,3224,39,critical_trial,run0,NA
2535235728,36,tree,4777250606022656,6728984358289408,9,110.0272693471941,7,1408,173,critical_trial,run0,NA
2535235728,37,tree,6252463373942784,4523862182068224,8,92.9623579735368,7,892,151,critical_trial,run0,NA
2535235728,38,tree,4592989026385920,5001874006605824,8,93.40770846134703,2,1704,155,critical_trial,run0,NA
2535235728,39,tree,5717789341908992,6161991028703232,1,46.75467891024384,7,941,15,critical_trial,run0,NA
2535235728,4,tree,5183192241799168,4753236034584576,7,92.13576938409967,6,833,140,critical_trial,run0,NA
2535235728,40,tree,5656537441763328,6617903266791424,3,61.84658438426491,7,1000,54,critical_trial,run0,NA
2535235728,41,tree,6318835097403392,5877961469198336,5,74.33034373659252,2,2837,81,critical_trial,run0,NA
2535235728,42,tree,5512375149002752,6085611746230272,3,59.21148537234985,2,1183,59,critical_trial,run0,NA
2535235728,43,tree,5841177574113280,5827807223480320,1,36.013886210738214,2,1351,5,critical_trial,run0,NA
2535235728,44,tree,6381970412011520,4752045758218240,4,66.70832032063167,7,931,77,critical_trial,run0,NA
2535235728,45,tree,6492093763551232,5944161578516480,10,120.01666550941998,7,1103,199,critical_trial,run0,NA
2535235728,46,tree,4604872747909120,6580511281512448,4,68.6804193347711,7,1493,74,critical_trial,run0,NA
2535235728,47,tree,6509219673014272,5009873450303488,2,50.48762224545735,6,2917,33,critical_trial,run0,NA
2535235728,48,tree,6471317173829632,6666180834099200,10,121.79490958164057,6,4573,194,critical_trial,run0,NA
2535235728,49,tree,5191090451775488,5540948224245760,4,67.17886572427373,6,2588,78,critical_trial,run0,NA
2535235728,5,tree,5706205446012928,5886855977369600,10,119.54078801814885,1,3754,190,critical_trial,run0,NA
2535235728,50,tree,4863967757336576,5347951129919488,10,151.21177202850313,7,1610,181,critical_trial,run0,NA
2535235728,51,tree,6425465445154816,6747812828020736,6,76.11832893594026,1,1766,109,attention_check,run0,NA
2535235728,52,tree,6232507345272832,5200899423076352,6,81.39410298049853,6,2735,107,critical_trial,run0,NA
2535235728,6,tree,4781795235069952,6629514828316672,9,102.95630140987001,7,1749,178,critical_trial,run0,NA
2535235728,7,tree,5579564220678144,5499033231556608,7,90.62008607367353,2,2066,137,critical_trial,run0,NA
2535235728,8,tree,5827807223480320,6031422261297152,8,95.0789145920377,4,2167,149,critical_trial,run0,NA
2535235728,9,tree,6582563558653952,5044755949944832,8,102.39628899525607,7,2214,157,critical_trial,run0,NA
2846257231,1,bread,6332315288469504,5593199454191616,10,206.90335908341362,7,10882,186,critical_trial,run0,NA
2846257231,10,bread,5015899692072960,5945098854465536,2,56.515484603779164,7,2024,28,critical_trial,run0,NA
2846257231,11,bread,4603484299067392,6456419710664704,3,72.49827584156743,4,2333,49,critical_trial,run0,NA
2846257231,12,bread,5164322542059520,4553901250445312,7,128.63125592172378,4,9730,133,critical_trial,run0,NA
2846257231,13,bread,4588376130846720,5275074091286528,5,90.35485598461214,7,2382,91,critical_trial,run0,NA
2846257231,14,bread,6429096269578240,5957502250254336,7,122.8087944733601,5,1869,132,critical_trial,run0,NA
2846257231,15,bread,6749882679296000,5683149088489472,8,144.20124826089406,3,1649,150,critical_trial,run0,NA
2846257231,16,bread,5544098662449152,5889453543391232,1,53.33854141237835,7,1941,17,critical_trial,run0,NA
2846257231,17,bread,6402266380632064,6114739950190592,6,109.29318368498559,3,2106,104,critical_trial,run0,NA
2846257231,18,bread,4823807099404288,6706496714833920,3,75.39230729988306,4,1573,55,critical_trial,run0,NA
2846257231,19,bread,5945648610279424,4655865820872704,6,114.54693361238441,7,1656,118,critical_trial,run0,NA
2846257231,2,bread,6087056570712064,5165292915261440,4,78.05767098754612,5,3780,64,critical_trial,run0,NA
2846257231,20,bread,5944082205507584,5004023893590016,6,101.39033484509261,4,1607,107,critical_trial,run0,NA
2846257231,21,bread,5846211812655104,5165932383043584,10,202.4080037943164,2,1771,195,critical_trial,run0,NA
2846257231,22,bread,5385189100355584,6112834557575168,9,150.88074761214565,4,1526,176,critical_trial,run0,NA
2846257231,23,bread,5744874814963712,6707542673588224,3,67.11929677819934,6,2004,42,critical_trial,run0,NA
2846257231,24,bread,5815057545953280,6064567316643840,8,145.16886718577092,7,1479,143,critical_trial,run0,NA
2846257231,25,bread,4561961628991488,5215576467177472,7,127.75758294520134,4,1401,139,critical_trial,run0,NA
2846257231,26,bread,6618717385392128,6415962309918720,9,151.48927354766738,1,2638,166,attention_check,run0,NA
2846257231,27,bread,6334333772103680,5599318100672512,5,98.43271813782245,3,2464,89,critical_trial,run0,NA
2846257231,28,bread,6138211606724608,4685170688917504,3,68.15423684555495,3,1604,53,critical_trial,run0,NA
2846257231,29,bread,6278667040718848,5380090357612544,8,138.6542462386205,5,1739,142,critical_trial,run0,NA
2846257231,3,bread,6141023266799616,5487190345777152,4,84,6,2332,77,critical_trial,run0,NA
2846257231,30,bread,5924994133524480,5259242002972672,10,192.27584351654787,4,1923,196,critical_trial,run0,NA
2846257231,31,bread,4835178172121088,6368627156582400,9,166.19265928433782,5,1756,173,critical_trial,run0,NA
2846257231,32,bread,5530798088257536,6112946063147008,4,85.84287972802403,6,1943,75,critical_trial,run0,NA
2846257231,33,bread,6378928467869696,5636664804245504,6,111.80339887498948,7,1249,112,critical_trial,run0,NA
2846257231,34,bread,6747649485045760,6749654328803328,2,61.61168720299745,3,1930,31,critical_trial,run0,NA
2846257231,35,bread,5299291230830592,5761119253692416,3,75.16648189186454,3,2076,45,critical_trial,run0,NA
2846257231,36,bread,6034519905796096,5126386987565056,8,135.71293232407882,4,1596,153,critical_trial,run0,NA
2846257231,37,bread,5522072862195712,6151037725442048,10,178.71765441612084,5,1733,194,critical_trial,run0,NA
2846257231,38,bread,6626243346694144,5867716999118848,7,132.6386067478093,3,2476,137,critical_trial,run0,NA
2846257231,39,bread,5459817109913600,6696240316153856,5,92.00543462209176,4,1574,87,critical_trial,run0,NA
2846257231,4,bread,5829237367898112,5978086149455872,2,56.32051136131489,3,3630,29,critical_trial,run0,NA
2846257231,40,bread,5908474112245760,5420607380389888,10,182.0109886792553,5,2667,184,critical_trial,run0,NA
2846257231,41,bread,4512177153114112,6334400226656256,1,35.11409973215888,2,1794,3,critical_trial,run0,NA
2846257231,42,bread,4960131072655360,4809963576754176,2,66.48308055437865,5,1767,33,critical_trial,run0,NA
2846257231,43,bread,4553981596532736,5760679489306624,5,96.13532129243653,5,1819,99,critical_trial,run0,NA
2846257231,44,bread,5696286164516864,5595598931623936,9,160.58953888718904,6,1615,177,critical_trial,run0,NA
2846257231,45,bread,6060647567589376,4905727405588480,2,55.326304774492215,6,1454,32,critical_trial,run0,NA
2846257231,46,bread,5563572501348352,4862302434099200,6,109.65856099730654,6,1461,105,critical_trial,run0,NA
2846257231,47,bread,6132053298905088,5244845192904704,8,143.13629868066312,3,1775,145,critical_trial,run0,NA
2846257231,48,bread,5722698418225152,5917724209315840,1,37.44329045369811,6,1769,6,critical_trial,run0,NA
2846257231,49,bread,5069642584293376,5266744761384960,10,172.58621034138272,5,1948,183,critical_trial,run0,NA
2846257231,5,bread,6703616133955584,6112946063147008,1,34.785054261852174,2,2736,16,critical_trial,run0,NA
2846257231,50,bread,6360677662851072,5344090143064064,10,220.95248357961492,6,1486,200,critical_trial,run0,NA
2846257231,51,bread,5196818612748288,4557891681910784,3,75.43208866258443,1,2148,46,attention_check,run0,NA
2846257231,52,bread,6075263563595776,5155641351995392,7,128.73616430514,5,1849,135,critical_trial,run0,NA
2846257231,6,bread,5386147704340480,6462238451826688,7,129.76902558006668,5,1973,140,critical_trial,run0,NA
2846257231,7,bread,5097250768289792,4534849647935488,8,138.2316895650198,6,2347,160,critical_trial,run0,NA
2846257231,8,bread,5055594903896064,6129118624088064,9,157.87653403846943,7,1674,175,critical_trial,run0,NA
